Code,CDISC_Submission_Value,Codelist_Name,Codelist_Extensible,Assigned_Category,Confidence,Note
C141657,TENMW1TC,10-Meter Walk/Run Functional Test Test Code,No,Instrument Test Code,HIGH,
C141656,TENMW1TN,10-Meter Walk/Run Functional Test Test Name,No,Instrument Test Name,HIGH,
C141663,A4STR1TC,4-Stair Ascend Functional Test Test Code,No,Instrument Test Code,HIGH,
C141662,A4STR1TN,4-Stair Ascend Functional Test Test Name,No,Instrument Test Name,HIGH,
C141661,D4STR1TC,4-Stair Descend Functional Test Test Code,No,Instrument Test Code,HIGH,
C141660,D4STR1TN,4-Stair Descend Functional Test Test Name,No,Instrument Test Name,HIGH,
C115388,SIXMW1TC,6 Minute Walk Functional Test Test Code,No,Instrument Test Code,HIGH,
C115387,SIXMW1TN,6 Minute Walk Functional Test Test Name,No,Instrument Test Name,HIGH,
C182464,AIMS0101T07OR,Abnormal Involuntary Movement Scale Clinical Classification ORRES for AIMS0101 Through AIMS0107 TN/TC,No,Instrument Original Result,HIGH,
C182465,AIMS0108T09OR,Abnormal Involuntary Movement Scale Clinical Classification ORRES for AIMS0108 Through AIMS0109 TN/TC,No,Instrument Original Result,HIGH,
C182466,AIMS0110OR,Abnormal Involuntary Movement Scale Clinical Classification ORRES for AIMS0110 TN/TC,No,Instrument Original Result,HIGH,
C182467,AIMS0111T12OR,Abnormal Involuntary Movement Scale Clinical Classification ORRES for AIMS0111 Through AIMS0112 TN/TC,No,Instrument Original Result,HIGH,
C182502,AIMS0101T07STR,Abnormal Involuntary Movement Scale Clinical Classification STRESC for AIMS0101 Through AIMS0107 TN/TC,No,Instrument Standardized Result,HIGH,
C182503,AIMS0108T09STR,Abnormal Involuntary Movement Scale Clinical Classification STRESC for AIMS0108 Through AIMS0109 TN/TC,No,Instrument Standardized Result,HIGH,
C182504,AIMS0110STR,Abnormal Involuntary Movement Scale Clinical Classification STRESC for AIMS0110 TN/TC,No,Instrument Standardized Result,HIGH,
C182505,AIMS0111T12STR,Abnormal Involuntary Movement Scale Clinical Classification STRESC for AIMS0111 Through AIMS0112 TN/TC,No,Instrument Standardized Result,HIGH,
C101805,AIMS01TC,Abnormal Involuntary Movement Scale Clinical Classification Test Code,No,Instrument Test Code,HIGH,
C101806,AIMS01TN,Abnormal Involuntary Movement Scale Clinical Classification Test Name,No,Instrument Test Name,HIGH,
C189265,ACCPARTY,Accountable Party,Yes,Role/Relationship,HIGH,
C66767,ACN,Action Taken with Study Treatment,No,Adverse Event Qualifier,HIGH,
C204420,TPACN,Action Taken with Tobacco Product,Yes,Adverse Event Qualifier,HIGH,
C101865,ACSPCAT,Acute Coronary Syndrome Presentation Category,No,Clinical Classification,HIGH,
C182484,APCH101OR,Acute Physiology and Chronic Health Evaluation II Clinical Classification ORRES for APCH101 TN/TC,No,Instrument Original Result,HIGH,
C182485,APCH102OR,Acute Physiology and Chronic Health Evaluation II Clinical Classification ORRES for APCH102 TN/TC,No,Instrument Original Result,HIGH,
C182486,APCH103OR,Acute Physiology and Chronic Health Evaluation II Clinical Classification ORRES for APCH103 TN/TC,No,Instrument Original Result,HIGH,
C182487,APCH104OR,Acute Physiology and Chronic Health Evaluation II Clinical Classification ORRES for APCH104 TN/TC,No,Instrument Original Result,HIGH,
C182488,APCH105AOR,Acute Physiology and Chronic Health Evaluation II Clinical Classification ORRES for APCH105A TN/TC,No,Instrument Original Result,HIGH,
C182489,APCH105BOR,Acute Physiology and Chronic Health Evaluation II Clinical Classification ORRES for APCH105B TN/TC,No,Instrument Original Result,HIGH,
C182490,APCH106AOR,Acute Physiology and Chronic Health Evaluation II Clinical Classification ORRES for APCH106A TN/TC,No,Instrument Original Result,HIGH,
C182491,APCH106BOR,Acute Physiology and Chronic Health Evaluation II Clinical Classification ORRES for APCH106B TN/TC,No,Instrument Original Result,HIGH,
C182492,APCH107OR,Acute Physiology and Chronic Health Evaluation II Clinical Classification ORRES for APCH107 TN/TC,No,Instrument Original Result,HIGH,
C182493,APCH108OR,Acute Physiology and Chronic Health Evaluation II Clinical Classification ORRES for APCH108 TN/TC,No,Instrument Original Result,HIGH,
C182494,APCH109OR,Acute Physiology and Chronic Health Evaluation II Clinical Classification ORRES for APCH109 TN/TC,No,Instrument Original Result,HIGH,
C182495,APCH110OR,Acute Physiology and Chronic Health Evaluation II Clinical Classification ORRES for APCH110 TN/TC,No,Instrument Original Result,HIGH,
C182496,APCH111OR,Acute Physiology and Chronic Health Evaluation II Clinical Classification ORRES for APCH111 TN/TC,No,Instrument Original Result,HIGH,
C182497,APCH114OR,Acute Physiology and Chronic Health Evaluation II Clinical Classification ORRES for APCH114 TN/TC,No,Instrument Original Result,HIGH,
C182498,APCH115OR,Acute Physiology and Chronic Health Evaluation II Clinical Classification ORRES for APCH115 TN/TC,No,Instrument Original Result,HIGH,
C182522,APCH101STR,Acute Physiology and Chronic Health Evaluation II Clinical Classification STRESC for APCH101 TN/TC,No,Instrument Standardized Result,HIGH,
C182523,APCH102STR,Acute Physiology and Chronic Health Evaluation II Clinical Classification STRESC for APCH102 TN/TC,No,Instrument Standardized Result,HIGH,
C182524,APCH103STR,Acute Physiology and Chronic Health Evaluation II Clinical Classification STRESC for APCH103 TN/TC,No,Instrument Standardized Result,HIGH,
C182525,APCH104STR,Acute Physiology and Chronic Health Evaluation II Clinical Classification STRESC for APCH104 TN/TC,No,Instrument Standardized Result,HIGH,
C182526,APCH105ASTR,Acute Physiology and Chronic Health Evaluation II Clinical Classification STRESC for APCH105A TN/TC,No,Instrument Standardized Result,HIGH,
C182527,APCH105BSTR,Acute Physiology and Chronic Health Evaluation II Clinical Classification STRESC for APCH105B TN/TC,No,Instrument Standardized Result,HIGH,
C182528,APCH106ASTR,Acute Physiology and Chronic Health Evaluation II Clinical Classification STRESC for APCH106A TN/TC,No,Instrument Standardized Result,HIGH,
C182529,APCH106BSTR,Acute Physiology and Chronic Health Evaluation II Clinical Classification STRESC for APCH106B TN/TC,No,Instrument Standardized Result,HIGH,
C182530,APCH107STR,Acute Physiology and Chronic Health Evaluation II Clinical Classification STRESC for APCH107 TN/TC,No,Instrument Standardized Result,HIGH,
C182531,APCH108STR,Acute Physiology and Chronic Health Evaluation II Clinical Classification STRESC for APCH108 TN/TC,No,Instrument Standardized Result,HIGH,
C182532,APCH109STR,Acute Physiology and Chronic Health Evaluation II Clinical Classification STRESC for APCH109 TN/TC,No,Instrument Standardized Result,HIGH,
C182533,APCH110STR,Acute Physiology and Chronic Health Evaluation II Clinical Classification STRESC for APCH110 TN/TC,No,Instrument Standardized Result,HIGH,
C182534,APCH111STR,Acute Physiology and Chronic Health Evaluation II Clinical Classification STRESC for APCH111 TN/TC,No,Instrument Standardized Result,HIGH,
C182535,APCH114STR,Acute Physiology and Chronic Health Evaluation II Clinical Classification STRESC for APCH114 TN/TC,No,Instrument Standardized Result,HIGH,
C182536,APCH115STR,Acute Physiology and Chronic Health Evaluation II Clinical Classification STRESC for APCH115 TN/TC,No,Instrument Standardized Result,HIGH,
C120985,APCH1TC,Acute Physiology and Chronic Health Evaluation II Clinical Classification Test Code,No,Instrument Test Code,HIGH,
C120984,APCH1TN,Acute Physiology and Chronic Health Evaluation II Clinical Classification Test Name,No,Instrument Test Name,HIGH,
C132311,ADTNQRS,Administration Technique Response,Yes,Observation Qualifier,HIGH,
C101807,AVL01TC,ADNI Auditory Verbal Learning Functional Test Test Code,No,Instrument Test Code,HIGH,
C101808,AVL01TN,ADNI Auditory Verbal Learning Functional Test Test Name,No,Instrument Test Name,HIGH,
C66781,AGEU,Age Unit,No,Unit of Measure,HIGH,
C112435,AQ01TC,Airway Questionnaire 20 Questionnaire Test Code,No,Instrument Test Code,HIGH,
C112434,AQ01TN,Airway Questionnaire 20 Questionnaire Test Name,No,Instrument Test Name,HIGH,
C141655,AJCC1TC,AJCC TNM Staging System 7th Edition Clinical Classification Test Code,No,Instrument Test Code,HIGH,
C141654,AJCC1TN,AJCC TNM Staging System 7th Edition Clinical Classification Test Name,No,Instrument Test Name,HIGH,
C135012,AJCCGRD,AJCC Tumor Grade Response,No,Clinical Classification,HIGH,
C119062,ADTC01TC,Alcohol Use Disorder Identification Test-Consumption Questions Questionnaire Test Code,No,Instrument Test Code,HIGH,
C119061,ADTC01TN,Alcohol Use Disorder Identification Test-Consumption Questions Questionnaire Test Name,No,Instrument Test Name,HIGH,
C119060,ADT01TC,Alcohol Use Disorder Identification Test: Self-Report Version Questionnaire Test Code,No,Instrument Test Code,HIGH,
C119059,ADT01TN,Alcohol Use Disorder Identification Test: Self-Report Version Questionnaire Test Name,No,Instrument Test Name,HIGH,
C161623,AVPU01TC,Alert Verbal Painful Unresponsive Scale Clinical Classification Test Code,No,Instrument Test Code,HIGH,
C161622,AVPU01TN,Alert Verbal Painful Unresponsive Scale Clinical Classification Test Name,No,Instrument Test Name,HIGH,
C100132,ADCTC,Alzheimer's Disease Assessment Scale - Cognitive CDISC Version Functional Test Test Code,No,Instrument Test Code,HIGH,
C100131,ADCTN,Alzheimer's Disease Assessment Scale - Cognitive CDISC Version Functional Test Test Name,No,Instrument Test Name,HIGH,
C213938,ADC1TC,Alzheimer's Disease Assessment Scale-Cognitive 30JUN2015 Functional Test Test Code,No,Instrument Test Code,HIGH,
C213937,ADC1TN,Alzheimer's Disease Assessment Scale-Cognitive 30JUN2015 Functional Test Test Name,No,Instrument Test Name,HIGH,
C106651,ADL03TC,Alzheimer's Disease Cooperative Study-Activities of Daily Living Inventory MCI Version Questionnaire Test Code,No,Instrument Test Code,HIGH,
C106650,ADL03TN,Alzheimer's Disease Cooperative Study-Activities of Daily Living Inventory MCI Version Questionnaire Test Name,No,Instrument Test Name,HIGH,
C105140,ADL01TC,Alzheimer's Disease Cooperative Study-Activities of Daily Living Inventory Questionnaire Test Code,No,Instrument Test Code,HIGH,
C105139,ADL01TN,Alzheimer's Disease Cooperative Study-Activities of Daily Living Inventory Questionnaire Test Name,No,Instrument Test Name,HIGH,
C106653,ADL02TC,Alzheimer's Disease Cooperative Study-Activities of Daily Living Inventory Severe Dementia Version Questionnaire Test Code,No,Instrument Test Code,HIGH,
C106652,ADL02TN,Alzheimer's Disease Cooperative Study-Activities of Daily Living Inventory Severe Dementia Version Questionnaire Test Name,No,Instrument Test Name,HIGH,
C103459,ACGC01TC,Alzheimer's Disease Cooperative Study-Clinical Global Impression of Change Questionnaire Test Code,No,Instrument Test Code,HIGH,
C103458,ACGC01TN,Alzheimer's Disease Cooperative Study-Clinical Global Impression of Change Questionnaire Test Name,No,Instrument Test Name,HIGH,
C74456,LOC,Anatomical Location,Yes,Anatomical Qualifier,HIGH,
C120521,AVOUTTRT,Anti-Viral Outcome of Treatment,Yes,Treatment Qualifier,HIGH,
C176047,APGR01TC,Apgar Score V1 Clinical Classification Test Code,No,Instrument Test Code,HIGH,
C176046,APGR01TN,Apgar Score V1 Clinical Classification Test Name,No,Instrument Test Name,HIGH,
C125741,ASEX01TC,Arizona Sexual Experiences Scale - Female Questionnaire Test Code,No,Instrument Test Code,HIGH,
C125740,ASEX01TN,Arizona Sexual Experiences Scale - Female Questionnaire Test Name,No,Instrument Test Name,HIGH,
C125743,ASEX02TC,Arizona Sexual Experiences Scale - Male Questionnaire Test Code,No,Instrument Test Code,HIGH,
C125742,ASEX02TN,Arizona Sexual Experiences Scale - Male Questionnaire Test Name,No,Instrument Test Name,HIGH,
C142179,ARMNULRS,Arm Null Reason,Yes,Trial Design,HIGH,
C124668,ASSG01TC,ASSIGN Cardiovascular Disease 10-Year Risk Score Clinical Classification Test Code,No,Instrument Test Code,HIGH,
C124667,ASSG01TN,ASSIGN Cardiovascular Disease 10-Year Risk Score Clinical Classification Test Name,No,Instrument Test Name,HIGH,
C163385,ADSD01TC,Asthma Daytime Symptom Diary v1.0 Questionnaire Test Code,No,Instrument Test Code,HIGH,
C163384,ADSD01TN,Asthma Daytime Symptom Diary v1.0 Questionnaire Test Name,No,Instrument Test Name,HIGH,
C132313,ASFATSCD,Asthma Findings About Test Code,Yes,Instrument Test Code,HIGH,
C132312,ASFATS,Asthma Findings About Test Name,Yes,Instrument Test Name,HIGH,
C163387,ANSD01TC,Asthma Nighttime Symptom Diary v1.0 Questionnaire Test Code,No,Instrument Test Code,HIGH,
C163386,ANSD01TN,Asthma Nighttime Symptom Diary v1.0 Questionnaire Test Name,No,Instrument Test Name,HIGH,
C124666,ASCVD1TC,Atherosclerotic Cardiovascular Disease 10-Year Risk Estimator Clinical Classification Test Code,No,Instrument Test Code,HIGH,
C124665,ASCVD1TN,Atherosclerotic Cardiovascular Disease 10-Year Risk Estimator Clinical Classification Test Name,No,Instrument Test Name,HIGH,
C182470,ATLAS101OR,ATLAS Clinical Classification ORRES for ATLAS101 TN/TC,No,Instrument Original Result,HIGH,
C182471,ATLAS102OR,ATLAS Clinical Classification ORRES for ATLAS102 TN/TC,No,Instrument Original Result,HIGH,
C182472,ATLAS103OR,ATLAS Clinical Classification ORRES for ATLAS103 TN/TC,No,Instrument Original Result,HIGH,
C182473,ATLAS104OR,ATLAS Clinical Classification ORRES for ATLAS104 TN/TC,No,Instrument Original Result,HIGH,
C182474,ATLAS105OR,ATLAS Clinical Classification ORRES for ATLAS105 TN/TC,No,Instrument Original Result,HIGH,
C182508,ATLAS101STR,ATLAS Clinical Classification STRESC for ATLAS101 TN/TC,No,Instrument Standardized Result,HIGH,
C182509,ATLAS102STR,ATLAS Clinical Classification STRESC for ATLAS102 TN/TC,No,Instrument Standardized Result,HIGH,
C182510,ATLAS103STR,ATLAS Clinical Classification STRESC for ATLAS103 TN/TC,No,Instrument Standardized Result,HIGH,
C182511,ATLAS104STR,ATLAS Clinical Classification STRESC for ATLAS104 TN/TC,No,Instrument Standardized Result,HIGH,
C182512,ATLAS105STR,ATLAS Clinical Classification STRESC for ATLAS105 TN/TC,No,Instrument Standardized Result,HIGH,
C147538,ATLAS1TC,ATLAS Clinical Classification Test Code,No,Instrument Test Code,HIGH,
C147537,ATLAS1TN,ATLAS Clinical Classification Test Name,No,Instrument Test Name,HIGH,
C190863,AUTESTCD,Auricular Findings Test Code,Yes,Instrument Test Code,HIGH,
C190862,AUTEST,Auricular Findings Test Name,Yes,Instrument Test Name,HIGH,
C135680,BEBQ01TC,Baby Eating Behaviour Questionnaire Concurrent Version Questionnaire Test Code,No,Instrument Test Code,HIGH,
C135679,BEBQ01TN,Baby Eating Behaviour Questionnaire Concurrent Version Questionnaire Test Name,No,Instrument Test Name,HIGH,
C135682,BEBQ02TC,Baby Eating Behaviour Questionnaire Retrospective Version Questionnaire Test Code,No,Instrument Test Code,HIGH,
C135681,BEBQ02TN,Baby Eating Behaviour Questionnaire Retrospective Version Questionnaire Test Name,No,Instrument Test Name,HIGH,
C101809,BARS01TC,Barnes Akathisia Rating Scale Clinical Classification Test Code,No,Instrument Test Code,HIGH,
C101810,BARS01TN,Barnes Akathisia Rating Scale Clinical Classification Test Name,No,Instrument Test Name,HIGH,
C106655,BDI01TC,Baseline Dyspnea Index Clinical Classification Test Code,No,Instrument Test Code,HIGH,
C106654,BDI01TN,Baseline Dyspnea Index Clinical Classification Test Name,No,Instrument Test Name,HIGH,
C181169,ISBDAGT,Binding Agent for Immunogenicity Tests,Yes,Microbiology/Immunology,HIGH,
C124300,BSTESTCD,Biospecimen Characteristics Test Code,Yes,Instrument Test Code,HIGH,
C124299,BSTEST,Biospecimen Characteristics Test Name,Yes,Instrument Test Name,HIGH,
C124297,BEDECOD,Biospecimen Events Dictionary Derived Term,Yes,Dictionary Reference,HIGH,
C113852,BLCS01TC,Bladder Control Scale Questionnaire Test Code,No,Instrument Test Code,HIGH,
C113851,BLCS01TN,Bladder Control Scale Questionnaire Test Name,No,Instrument Test Name,HIGH,
C113846,BCR101TC,Borg CR10 Scale Questionnaire Test Code,No,Instrument Test Code,HIGH,
C113845,BCR101TN,Borg CR10 Scale Questionnaire Test Name,No,Instrument Test Name,HIGH,
C113854,BWCS01TC,Bowel Control Scale Questionnaire Test Code,No,Instrument Test Code,HIGH,
C113853,BWCS01TN,Bowel Control Scale Questionnaire Test Name,No,Instrument Test Name,HIGH,
C125923,BRDGMOOD,BRIDG Activity Mood,Yes,Trial Design,HIGH,
C120983,BACS1TC,Brief Assessment of Cognition in Schizophrenia Functional Test Test Code,No,Instrument Test Code,HIGH,
C120982,BACS1TN,Brief Assessment of Cognition in Schizophrenia Functional Test Test Name,No,Instrument Test Name,HIGH,
C100162,BPI1TC,Brief Pain Inventory Questionnaire Test Code,No,Instrument Test Code,HIGH,
C100161,BPI1TN,Brief Pain Inventory Questionnaire Test Name,No,Instrument Test Name,HIGH,
C100164,BPI2TC,Brief Pain Inventory Short Form Questionnaire Test Code,No,Instrument Test Code,HIGH,
C100163,BPI2TN,Brief Pain Inventory Short Form Questionnaire Test Name,No,Instrument Test Name,HIGH,
C161625,BPRS01TC,Brief Psychiatric Rating Scale 1988 Version Clinical Classification Test Code,No,Instrument Test Code,HIGH,
C161624,BPRS01TN,Brief Psychiatric Rating Scale 1988 Version Clinical Classification Test Name,No,Instrument Test Name,HIGH,
C189693,BPRSA118OR,Brief Psychiatric Rating Scale-Anchored Clinical Classification ORRES for BPRSA118 TN/TC,No,Instrument Original Result,HIGH,
C189689,BPRSA1SET1OR,Brief Psychiatric Rating Scale-Anchored Clinical Classification ORRES the Same as BPRSA101 TN/TC,No,Instrument Original Result,HIGH,
C189691,BPRSA1SET2OR,Brief Psychiatric Rating Scale-Anchored Clinical Classification ORRES the Same as BPRSA103 TN/TC,No,Instrument Original Result,HIGH,
C189694,BPRSA118STR,Brief Psychiatric Rating Scale-Anchored Clinical Classification STRESC for BPRSA118 TN/TC,No,Instrument Standardized Result,HIGH,
C189690,BPRSA1SET1STR,Brief Psychiatric Rating Scale-Anchored Clinical Classification STRESC the Same as BPRSA101 TN/TC,No,Instrument Standardized Result,HIGH,
C189692,BPRSA1SET2STR,Brief Psychiatric Rating Scale-Anchored Clinical Classification STRESC the Same as BPRSA103 TN/TC,No,Instrument Standardized Result,HIGH,
C100134,BPRSA1TC,Brief Psychiatric Rating Scale-Anchored Clinical Classification Test Code,No,Instrument Test Code,HIGH,
C100133,BPRSA1TN,Brief Psychiatric Rating Scale-Anchored Clinical Classification Test Name,No,Instrument Test Name,HIGH,
C130239,BUERS1TC,Brooke Upper Extremity Rating Scale Clinical Classification Test Code,No,Instrument Test Code,HIGH,
C130238,BUERS1TN,Brooke Upper Extremity Rating Scale Clinical Classification Test Name,No,Instrument Test Name,HIGH,
C199499,CCSGA1TC,Canadian Cardiovascular Society Grading of Angina Pectoris Clinical Classification Test Code,No,Instrument Test Code,HIGH,
C199498,CCSGA1TN,Canadian Cardiovascular Society Grading of Angina Pectoris Clinical Classification Test Name,No,Instrument Test Name,HIGH,
C199510,CCSGA101OR,Canadian Cardiovascular Society Grading Scale of Angina Pectoris Clinical Classification ORRES for CCSGA101 TN/TC,No,Instrument Original Result,HIGH,
C199511,CCSGA101STR,Canadian Cardiovascular Society Grading Scale of Angina Pectoris Clinical Classification STRESC for CCSGA101 TN/TC,No,Instrument Standardized Result,HIGH,
C101859,CVPRCIND,Cardiac Procedure Indication,Yes,Treatment Qualifier,HIGH,
C101866,CRYDFMAN,Cardiac Rhythm Device Failure Manifestation,Yes,Device,HIGH,
C119016,CVFARS,Cardiovascular Findings About Results,Yes,Observation Qualifier,HIGH,
C119015,CVFATSCD,Cardiovascular Findings About Test Code,Yes,Instrument Test Code,HIGH,
C119014,CVFATS,Cardiovascular Findings About Test Name,Yes,Instrument Test Name,HIGH,
C101847,CVTESTCD,Cardiovascular Test Code,Yes,Instrument Test Code,HIGH,
C101846,CVTEST,Cardiovascular Test Name,Yes,Instrument Test Name,HIGH,
C127263,CASEFIND,Case Finding,Yes,Observation Qualifier,HIGH,
C181171,CPCAT,Category for Cell Phenotyping,Yes,Domain Category,HIGH,
C118971,CCCAT,Category of Clinical Classification,Yes,Domain Category,HIGH,
C111109,DECAT,Category of Device Events,Yes,Domain Category,HIGH,
C74558,DSCAT,Category of Disposition Event,No,Domain Category,HIGH,
C115304,FTCAT,Category of Functional Test,Yes,Domain Category,HIGH,
C66797,IECAT,Category of Inclusion/Exclusion,No,Domain Category,HIGH,
C204424,IQCAT,Category of Ingredient Quantities by Component,Yes,Domain Category,HIGH,
C124298,ONCRSCAT,Category of Oncology Response Assessment,Yes,Domain Category,HIGH,
C100129,QSCAT,Category of Questionnaire,Yes,Domain Category,HIGH,
C204429,PTCAT,Category of Tobacco Product Testing,Yes,Domain Category,HIGH,
C204434,TOCAT,Category of Tobacco Products,Yes,Domain Category,HIGH,
C150812,CDFATSCD,CDAD Findings About Test Code,Yes,Instrument Test Code,HIGH,
C150813,CDFATS,CDAD Findings About Test Name,Yes,Instrument Test Name,HIGH,
C124678,CHIVC1TC,CDC Classification System for HIV-Infected Adults and Adolescents Clinical Classification Test Code,No,Instrument Test Code,HIGH,
C124677,CHIVC1TN,CDC Classification System for HIV-Infected Adults and Adolescents Clinical Classification Test Name,No,Instrument Test Name,HIGH,
C160925,CTAUGRS,CDISC Therapeutic Area User Guide Response,Yes,Trial Design,HIGH,
C181173,CPTESTCD,Cell Phenotyping Test Code,Yes,Instrument Test Code,HIGH,
C181174,CPTEST,Cell Phenotyping Test Name,Yes,Instrument Test Name,HIGH,
C181172,CELSTATE,Cell State Response,Yes,Observation Qualifier,HIGH,
C208383,CPS0101OR,Child-Pugh Classification Clinical Classification ORRES for CPS0101 TN/TC,No,Instrument Original Result,HIGH,
C208384,CPS0102OR,Child-Pugh Classification Clinical Classification ORRES for CPS0102 TN/TC,No,Instrument Original Result,HIGH,
C208385,CPS0103OR,Child-Pugh Classification Clinical Classification ORRES for CPS0103 TN/TC,No,Instrument Original Result,HIGH,
C208386,CPS0104OR,Child-Pugh Classification Clinical Classification ORRES for CPS0104 TN/TC,No,Instrument Original Result,HIGH,
C208387,CPS0105AOR,Child-Pugh Classification Clinical Classification ORRES for CPS0105A TN/TC,No,Instrument Original Result,HIGH,
C208388,CPS0105BOR,Child-Pugh Classification Clinical Classification ORRES for CPS0105B TN/TC,No,Instrument Original Result,HIGH,
C208389,CPS0107OR,Child-Pugh Classification Clinical Classification ORRES for CPS0107 TN/TC,No,Instrument Original Result,HIGH,
C208390,CPS0101STR,Child-Pugh Classification Clinical Classification STRESC for CPS0101 TN/TC,No,Instrument Standardized Result,HIGH,
C208391,CPS0102STR,Child-Pugh Classification Clinical Classification STRESC for CPS0102 TN/TC,No,Instrument Standardized Result,HIGH,
C208392,CPS0103STR,Child-Pugh Classification Clinical Classification STRESC for CPS0103 TN/TC,No,Instrument Standardized Result,HIGH,
C208393,CPS0104STR,Child-Pugh Classification Clinical Classification STRESC for CPS0104 TN/TC,No,Instrument Standardized Result,HIGH,
C208394,CPS0105ASTR,Child-Pugh Classification Clinical Classification STRESC for CPS0105A TN/TC,No,Instrument Standardized Result,HIGH,
C208395,CPS0105BSTR,Child-Pugh Classification Clinical Classification STRESC for CPS0105B TN/TC,No,Instrument Standardized Result,HIGH,
C208396,CPS0107STR,Child-Pugh Classification Clinical Classification STRESC for CPS0107 TN/TC,No,Instrument Standardized Result,HIGH,
C120989,CPS01TC,Child-Pugh Classification Clinical Classification Test Code,No,Instrument Test Code,HIGH,
C120988,CPS01TN,Child-Pugh Classification Clinical Classification Test Name,No,Instrument Test Name,HIGH,
C154447,CDRS1TC,"Children's Depression Rating Scale, Revised Clinical Classification Test Code",No,Instrument Test Code,HIGH,
C154446,CDRS1TN,"Children's Depression Rating Scale, Revised Clinical Classification Test Name",No,Instrument Test Name,HIGH,
C120979,CRQ01TC,Chronic Respiratory Questionnaire Self-Administered Standardized Format First Administration Version Questionnaire Test Code,No,Instrument Test Code,HIGH,
C120978,CRQ01TN,Chronic Respiratory Questionnaire Self-Administered Standardized Format First Administration Version Questionnaire Test Name,No,Instrument Test Name,HIGH,
C120981,CRQ02TC,Chronic Respiratory Questionnaire Self-Administered Standardized Format Follow-Up Administration Version Questionnaire Test Code,No,Instrument Test Code,HIGH,
C120980,CRQ02TN,Chronic Respiratory Questionnaire Self-Administered Standardized Format Follow-Up Administration Version Questionnaire Test Name,No,Instrument Test Name,HIGH,
C119066,CCQ02TC,Clinical COPD Questionnaire 1 Week Version Questionnaire Test Code,No,Instrument Test Code,HIGH,
C119065,CCQ02TN,Clinical COPD Questionnaire 1 Week Version Questionnaire Test Name,No,Instrument Test Name,HIGH,
C119064,CCQ01TC,Clinical COPD Questionnaire 24 Hour Version Questionnaire Test Code,No,Instrument Test Code,HIGH,
C119063,CCQ01TN,Clinical COPD Questionnaire 24 Hour Version Questionnaire Test Name,No,Instrument Test Name,HIGH,
C101811,CDR01TC,Clinical Dementia Rating Clinical Classification Test Code,No,Instrument Test Code,HIGH,
C101812,CDR01TN,Clinical Dementia Rating Clinical Classification Test Name,No,Instrument Test Name,HIGH,
C135686,CGI02TC,Clinical Global Impression Generic Modification Version Questionnaire Test Code,No,Instrument Test Code,HIGH,
C135685,CGI02TN,Clinical Global Impression Generic Modification Version Questionnaire Test Name,No,Instrument Test Name,HIGH,
C101813,COWS1TC,Clinical Opiate Withdrawal Scale Questionnaire Test Code,No,Instrument Test Code,HIGH,
C101814,COWS1TN,Clinical Opiate Withdrawal Scale Questionnaire Test Name,No,Instrument Test Name,HIGH,
C213531,CLINSTRS,Clinical Status of Disease Response,Yes,Disposition,HIGH,
C187452,CAP01TC,Clinician-Administered PTSD Scale (Current) DSM-5 With DSM IV Scoring 2016 Version Clinical Classification Test Code,No,Instrument Test Code,HIGH,
C187451,CAP01TN,Clinician-Administered PTSD Scale (Current) DSM-5 With DSM IV Scoring 2016 Version Clinical Classification Test Name,No,Instrument Test Name,HIGH,
C177908,COLSTYP,Collected Summarized Value Type Response,Yes,Observation Qualifier,HIGH,
C106659,CSS05TC,Columbia-Suicide Severity Rating Scale Already Enrolled Subjects Questionnaire Test Code,No,Instrument Test Code,HIGH,
C106658,CSS05TN,Columbia-Suicide Severity Rating Scale Already Enrolled Subjects Questionnaire Test Name,No,Instrument Test Name,HIGH,
C100168,CSS01TC,Columbia-Suicide Severity Rating Scale Baseline Questionnaire Test Code,No,Instrument Test Code,HIGH,
C100167,CSS01TN,Columbia-Suicide Severity Rating Scale Baseline Questionnaire Test Name,No,Instrument Test Name,HIGH,
C105132,CSS03TC,Columbia-Suicide Severity Rating Scale Baseline/Screening Version Phase 1 Study Questionnaire Test Code,No,Instrument Test Code,HIGH,
C105131,CSS03TN,Columbia-Suicide Severity Rating Scale Baseline/Screening Version Phase 1 Study Questionnaire Test Name,No,Instrument Test Name,HIGH,
C106661,CSS04TC,Columbia-Suicide Severity Rating Scale Baseline/Screening Version Questionnaire Test Code,No,Instrument Test Code,HIGH,
C106660,CSS04TN,Columbia-Suicide Severity Rating Scale Baseline/Screening Version Questionnaire Test Name,No,Instrument Test Name,HIGH,
C111336,CSS06TC,Columbia-Suicide Severity Rating Scale Children's Baseline Questionnaire Test Code,No,Instrument Test Code,HIGH,
C111335,CSS06TN,Columbia-Suicide Severity Rating Scale Children's Baseline Questionnaire Test Name,No,Instrument Test Name,HIGH,
C111338,CSS07TC,Columbia-Suicide Severity Rating Scale Children's Baseline/Screening Questionnaire Test Code,No,Instrument Test Code,HIGH,
C111337,CSS07TN,Columbia-Suicide Severity Rating Scale Children's Baseline/Screening Questionnaire Test Name,No,Instrument Test Name,HIGH,
C111340,CSS08TC,Columbia-Suicide Severity Rating Scale Children's Since Last Visit Questionnaire Test Code,No,Instrument Test Code,HIGH,
C111339,CSS08TN,Columbia-Suicide Severity Rating Scale Children's Since Last Visit Questionnaire Test Name,No,Instrument Test Name,HIGH,
C117989,CSS11TC,Columbia-Suicide Severity Rating Scale Lifetime/Recent Version Questionnaire Test Code,No,Instrument Test Code,HIGH,
C117988,CSS11TN,Columbia-Suicide Severity Rating Scale Lifetime/Recent Version Questionnaire Test Name,No,Instrument Test Name,HIGH,
C113848,CSS10TC,Columbia-Suicide Severity Rating Scale Pediatric/Cognitively Impaired Lifetime/Recent Questionnaire Test Code,No,Instrument Test Code,HIGH,
C113847,CSS10TN,Columbia-Suicide Severity Rating Scale Pediatric/Cognitively Impaired Lifetime/Recent Questionnaire Test Name,No,Instrument Test Name,HIGH,
C111342,CSS09TC,Columbia-Suicide Severity Rating Scale Screening Questionnaire Test Code,No,Instrument Test Code,HIGH,
C111341,CSS09TN,Columbia-Suicide Severity Rating Scale Screening Questionnaire Test Name,No,Instrument Test Name,HIGH,
C103461,CSS02TC,Columbia-Suicide Severity Rating Scale Since Last Visit Questionnaire Test Code,No,Instrument Test Code,HIGH,
C103460,CSS02TN,Columbia-Suicide Severity Rating Scale Since Last Visit Questionnaire Test Name,No,Instrument Test Name,HIGH,
C179945,CES0101OR,Combat Exposure Scale Questionnaire ORRES for CES0101 TN/TC,No,Instrument Original Result,HIGH,
C179946,CES0102OR,Combat Exposure Scale Questionnaire ORRES for CES0102 TN/TC,No,Instrument Original Result,HIGH,
C179947,CES0103OR,Combat Exposure Scale Questionnaire ORRES for CES0103 TN/TC,No,Instrument Original Result,HIGH,
C179948,CES0104OR,Combat Exposure Scale Questionnaire ORRES for CES0104 TN/TC,No,Instrument Original Result,HIGH,
C179949,CES0105T07OR,Combat Exposure Scale Questionnaire ORRES for CES0105 Through CES0107 TN/TC,No,Instrument Original Result,HIGH,
C179950,CES0101STR,Combat Exposure Scale Questionnaire STRESC for CES0101 TN/TC,No,Instrument Standardized Result,HIGH,
C179951,CES0102STR,Combat Exposure Scale Questionnaire STRESC for CES0102 TN/TC,No,Instrument Standardized Result,HIGH,
C179952,CES0103STR,Combat Exposure Scale Questionnaire STRESC for CES0103 TN/TC,No,Instrument Standardized Result,HIGH,
C179953,CES0104STR,Combat Exposure Scale Questionnaire STRESC for CES0104 TN/TC,No,Instrument Standardized Result,HIGH,
C179954,CES0105T07STR,Combat Exposure Scale Questionnaire STRESC for CES0105 Through CES0107 TN/TC,No,Instrument Standardized Result,HIGH,
C132519,CES01TC,Combat Exposure Scale Questionnaire Test Code,No,Instrument Test Code,HIGH,
C132518,CES01TN,Combat Exposure Scale Questionnaire Test Name,No,Instrument Test Name,HIGH,
C199501,CBS01TC,Comfort Behavior Scale Clinical Classification Test Code,No,Instrument Test Code,HIGH,
C199500,CBS01TN,Comfort Behavior Scale Clinical Classification Test Name,No,Instrument Test Name,HIGH,
C187681,CMSPSTAT,Commercial Sponsor Status Response,No,Observation Qualifier,HIGH,
C66727,NCOMPLT,Completion/Reason for Non-Completion,Yes,Disposition,HIGH,
C90018,CSTATE,Consciousness State,Yes,Observation Qualifier,HIGH,
C102575,CCINVTYP,Contact Case Investigation Contact Type,Yes,Role/Relationship,HIGH,
C127257,CONROL,Contact Role for Clinical Study,Yes,Role/Relationship,HIGH,
C66785,TCNTRL,Control Type Response,Yes,Trial Design,HIGH,
C150766,COWAT1TC,Controlled Oral Word Association Test Functional Test Test Code,No,Instrument Test Code,HIGH,
C150765,COWAT1TN,Controlled Oral Word Association Test Functional Test Test Name,No,Instrument Test Name,HIGH,
C122007,CPFATSCD,COPD Findings About Test Code,Yes,Instrument Test Code,HIGH,
C122006,CPFATS,COPD Findings About Test Name,Yes,Instrument Test Name,HIGH,
C101843,CADPRSN,Coronary Artery Disease Presentation,No,Clinical Classification,HIGH,
C101849,CADRISK,Coronary Artery Disease Risk,No,Clinical Classification,HIGH,
C101844,CADSYMP,Coronary Artery Disease Symptoms,No,Clinical Classification,HIGH,
C119076,CADG01TC,Coronary Artery Dissection NHLBI Grade Clinical Classification Test Code,No,Instrument Test Code,HIGH,
C119075,CADG01TN,Coronary Artery Dissection NHLBI Grade Clinical Classification Test Name,No,Instrument Test Name,HIGH,
C119018,CADGRS,Coronary Artery Dissection NHLBI Grade Responses,No,Clinical Classification,HIGH,
C101860,CARTDOM,Coronary Artery Dominance,No,Clinical Classification,HIGH,
C119074,TIMG01TC,Coronary Thrombus TIMI Grade Clinical Classification Test Code,No,Instrument Test Code,HIGH,
C119073,TIMG01TN,Coronary Thrombus TIMI Grade Clinical Classification Test Name,No,Instrument Test Name,HIGH,
C119017,CTTIMIRS,Coronary Thrombus TIMI Grade Responses,No,Clinical Classification,HIGH,
C101850,CVSLDEXT,Coronary Vessel Disease Extent,No,Clinical Classification,HIGH,
C156673,COVI01TC,Covi Anxiety Scale Clinical Classification Test Code,No,Instrument Test Code,HIGH,
C156672,COVI01TN,Covi Anxiety Scale Clinical Classification Test Name,No,Instrument Test Name,HIGH,
C171443,C19FATCD,COVID-19 Findings About Test Code,Yes,Instrument Test Code,HIGH,
C171442,C19FAT,COVID-19 Findings About Test Name,Yes,Instrument Test Name,HIGH,
C117987,CHSF1TC,Craig Handicap Assessment and Reporting Technique - Short Form Interview Version Questionnaire Test Code,No,Instrument Test Code,HIGH,
C117986,CHSF1TN,Craig Handicap Assessment and Reporting Technique - Short Form Interview Version Questionnaire Test Name,No,Instrument Test Name,HIGH,
C119068,CHSF2TC,Craig Handicap Assessment and Reporting Technique - Short Form Paper Version Questionnaire Test Code,No,Instrument Test Code,HIGH,
C119067,CHSF2TN,Craig Handicap Assessment and Reporting Technique - Short Form Paper Version Questionnaire Test Name,No,Instrument Test Name,HIGH,
C176049,CDAI01TC,Crohn's Disease Activity Index Version 1 Questionnaire Test Code,No,Instrument Test Code,HIGH,
C176048,CDAI01TN,Crohn's Disease Activity Index Version 1 Questionnaire Test Name,No,Instrument Test Name,HIGH,
C174223,CRFATSCD,Crohn's Disease Findings About Test Code,Yes,Instrument Test Code,HIGH,
C174224,CRFATS,Crohn's Disease Findings About Test Name,Yes,Instrument Test Name,HIGH,
C127264,CLTMDTYP,Culture Medium Type,Yes,Specimen,HIGH,
C100158,COMM1TC,Current Opioid Misuse Measure Questionnaire Test Code,No,Instrument Test Code,HIGH,
C100157,COMM1TN,Current Opioid Misuse Measure Questionnaire Test Name,No,Instrument Test Name,HIGH,
C141673,DRRI1TC,Deployment Risk and Resilience Inventory-2 Questionnaire Test Code,No,Instrument Test Code,HIGH,
C141672,DRRI1TN,Deployment Risk and Resilience Inventory-2 Questionnaire Test Name,No,Instrument Test Name,HIGH,
C119070,DLQI1TC,Dermatology Life Quality Index Questionnaire Test Code,No,Instrument Test Code,HIGH,
C119069,DLQI1TN,Dermatology Life Quality Index Questionnaire Test Name,No,Instrument Test Name,HIGH,
C111110,DEACNDEV,Device Events Action Taken with Device,Yes,Adverse Event Qualifier,HIGH,
C106480,DIPARM,Device Identifier Long Name,Yes,Device,HIGH,
C106481,DIPARMCD,Device Identifier Short Name,Yes,Device,HIGH,
C111111,DOTESTCD,Device Properties Test Code,Yes,Instrument Test Code,HIGH,
C111112,DOTEST,Device Properties Test Name,Yes,Instrument Test Name,HIGH,
C112037,DTDECOD,Device Tracking and Disposition Event Dictionary Derived Term,Yes,Disposition,HIGH,
C129938,DURS,Device-In-Use Response,Yes,Device,HIGH,
C106483,DUTESTCD,Device-In-Use Test Code,Yes,Instrument Test Code,HIGH,
C106482,DUTEST,Device-In-Use Test Name,Yes,Instrument Test Name,HIGH,
C161621,DDS01TC,Diabetes Distress Scale for Adults with Type 1 Diabetes Questionnaire Test Code,No,Instrument Test Code,HIGH,
C161620,DDS01TN,Diabetes Distress Scale for Adults with Type 1 Diabetes Questionnaire Test Name,No,Instrument Test Name,HIGH,
C163395,DDS02TC,Diabetes Distress Scale for Parents of Teens with Type 1 Diabetes Questionnaire Test Code,No,Instrument Test Code,HIGH,
C163394,DDS02TN,Diabetes Distress Scale for Parents of Teens with Type 1 Diabetes Questionnaire Test Name,No,Instrument Test Name,HIGH,
C163397,DDS03TC,Diabetes Distress Scale for Partners of Adults with Type 1 Diabetes Questionnaire Test Code,No,Instrument Test Code,HIGH,
C163396,DDS03TN,Diabetes Distress Scale for Partners of Adults with Type 1 Diabetes Questionnaire Test Name,No,Instrument Test Name,HIGH,
C101857,DIABTHPY,Diabetes Therapy,Yes,Treatment Qualifier,HIGH,
C129940,DKFATSCD,Diabetic Kidney Disease Findings About Test Code,Yes,Instrument Test Code,HIGH,
C129939,DKFATS,Diabetic Kidney Disease Findings About Test Name,Yes,Instrument Test Name,HIGH,
C183549,DIBC01TC,Diary for Irritable Bowel Syndrome Symptoms-Constipation v1.0 Questionnaire Test Code,No,Instrument Test Code,HIGH,
C183548,DIBC01TN,Diary for Irritable Bowel Syndrome Symptoms-Constipation v1.0 Questionnaire Test Name,No,Instrument Test Name,HIGH,
C66788,DICTNAM,Dictionary Name,Yes,Dictionary Reference,HIGH,
C99074,DIR,Directionality,Yes,Anatomical Qualifier,HIGH,
C105130,DAD01TC,Disability Assessment for Dementia Questionnaire Test Code,No,Instrument Test Code,HIGH,
C105129,DAD01TN,Disability Assessment for Dementia Questionnaire Test Name,No,Instrument Test Name,HIGH,
C115402,DRS01TC,Disability Rating Scale Clinical Classification Test Code,No,Instrument Test Code,HIGH,
C115401,DRS01TN,Disability Rating Scale Clinical Classification Test Name,No,Instrument Test Name,HIGH,
C101863,DISCHDX,Discharge Disposition,Yes,Disposition,HIGH,
C102578,DSSOUT,Disease Outcome,Yes,Observation Qualifier,HIGH,
C127268,DSPRTYP,Disease Presentation Type,Yes,Observation Qualifier,HIGH,
C112437,DS01TC,Disease Steps Clinical Classification Test Code,No,Instrument Test Code,HIGH,
C112436,DS01TN,Disease Steps Clinical Classification Test Name,No,Instrument Test Name,HIGH,
C66726,FRM,Dosage Form,Yes,Treatment Qualifier,HIGH,
C78732,DATESTCD,Drug Accountability Test Code,Yes,Instrument Test Code,HIGH,
C78731,DATEST,Drug Accountability Test Name,Yes,Instrument Test Name,HIGH,
C102577,DRSTAT,Drug Resistance Status,Yes,Treatment Qualifier,HIGH,
C139018,DMFATSCD,Duchenne Muscular Dystrophy Findings About Test Code,Yes,Instrument Test Code,HIGH,
C139019,DMFATS,Duchenne Muscular Dystrophy Findings About Test Name,Yes,Instrument Test Name,HIGH,
C179943,ECOG101OR,Eastern Cooperative Oncology Group Performance Status Clinical Classification ORRES for ECOG101 TN/TC,No,Instrument Original Result,HIGH,
C179944,ECOG101STR,Eastern Cooperative Oncology Group Performance Status Clinical Classification STRESC for ECOG101 TN/TC,No,Instrument Standardized Result,HIGH,
C101815,ECOG1TC,Eastern Cooperative Oncology Group Performance Status Clinical Classification Test Code,No,Instrument Test Code,HIGH,
C101816,ECOG1TN,Eastern Cooperative Oncology Group Performance Status Clinical Classification Test Name,No,Instrument Test Name,HIGH,
C132316,EBFATSCD,Ebola Virus Findings About Test Code,Yes,Instrument Test Code,HIGH,
C132315,EBFATS,Ebola Virus Findings About Test Name,Yes,Instrument Test Name,HIGH,
C219709,EGANMET,ECG Analysis Method,Yes,Method,HIGH,
C90013,EGLEAD,ECG Lead,Yes,ECG Findings,HIGH,
C172333,EGRDMETH,ECG Read Method Response,Yes,Method,HIGH,
C71150,EGSTRESC,ECG Result,Yes,ECG Findings,HIGH,
C184331,TWOFFMTH,ECG T Wave Offset Method Response,Yes,Method,HIGH,
C71153,EGTESTCD,ECG Test Code,Yes,Instrument Test Code,HIGH,
C71151,EGMETHOD,ECG Test Method,Yes,Method,HIGH,
C71152,EGTEST,ECG Test Name,Yes,Instrument Test Name,HIGH,
C132521,EPDS01TC,Edinburgh Postnatal Depression Scale Questionnaire Test Code,No,Instrument Test Code,HIGH,
C132520,EPDS01TN,Edinburgh Postnatal Depression Scale Questionnaire Test Name,No,Instrument Test Name,HIGH,
C161627,ETRP01TC,Emory Treatment Resistance Interview for PTSD Clinical Classification Test Code,No,Instrument Test Code,HIGH,
C161626,ETRP01TN,Emory Treatment Resistance Interview for PTSD Clinical Classification Test Name,No,Instrument Test Name,HIGH,
C150768,EMO1TC,Emotion Recognition Functional Test Test Code,No,Instrument Test Code,HIGH,
C150767,EMO1TN,Emotion Recognition Functional Test Test Name,No,Instrument Test Name,HIGH,
C111108,EMPSTAT,Employment Status,Yes,Demographic,HIGH,
C127262,SETTING,Environmental Setting,Yes,Observation Qualifier,HIGH,
C204421,ESPARMCD,Environmental Storage Conditions Parameter Code,Yes,Parameter Name-Code,HIGH,
C204422,ESPARM,Environmental Storage Conditions Parameter Name,Yes,Parameter Name-Code,HIGH,
C99079,EPOCH,Epoch,Yes,Trial Design,HIGH,
C103463,ESS01TC,Epworth Sleepiness Scale Questionnaire Test Code,No,Instrument Test Code,HIGH,
C103462,ESS01TN,Epworth Sleepiness Scale Questionnaire Test Name,No,Instrument Test Name,HIGH,
C66790,ETHNIC,Ethnic Group,No,Demographic,HIGH,
C128690,ETHNICC,Ethnicity As Collected,Yes,Demographic,HIGH,
C170525,EOR06TC,European Organisation for the Research and Treatment of Cancer Quality of Life Questionnaire - Colorectal Cancer Version 2.1 29 Items Questionnaire Test Code,No,Instrument Test Code,HIGH,
C170524,EOR06TN,European Organisation for the Research and Treatment of Cancer Quality of Life Questionnaire - Colorectal Cancer Version 2.1 29 Items Questionnaire Test Name,No,Instrument Test Name,HIGH,
C161619,EOR01TC,European Organisation for the Research and Treatment of Cancer Quality of Life Questionnaire - Core 30 Version 3.0 Questionnaire Test Code,No,Instrument Test Code,HIGH,
C161618,EOR01TN,European Organisation for the Research and Treatment of Cancer Quality of Life Questionnaire - Core 30 Version 3.0 Questionnaire Test Name,No,Instrument Test Name,HIGH,
C172400,EOR18TC,European Organisation for the Research and Treatment of Cancer Quality of Life Questionnaire - Lung Cancer 13 Items Questionnaire Test Code,No,Instrument Test Code,HIGH,
C172399,EOR18TN,European Organisation for the Research and Treatment of Cancer Quality of Life Questionnaire - Lung Cancer 13 Items Questionnaire Test Name,No,Instrument Test Name,HIGH,
C161617,EOR02TC,European Organisation for the Research and Treatment of Cancer Quality of Life Questionnaire - Palliative Care Version 1.0 Questionnaire Test Code,No,Instrument Test Code,HIGH,
C161616,EOR02TN,European Organisation for the Research and Treatment of Cancer Quality of Life Questionnaire - Palliative Care Version 1.0 Questionnaire Test Name,No,Instrument Test Name,HIGH,
C219713,EOR30TC,European Organization for the Research and Treatment of Cancer Quality of Life - Anal Cancer 27 Items Questionnaire Test Code,No,Instrument Test Code,HIGH,
C219712,EOR30TN,European Organization for the Research and Treatment of Cancer Quality of Life - Anal Cancer 27 Items Questionnaire Test Name,No,Instrument Test Name,HIGH,
C219717,EOR03TC,European Organization for the Research and Treatment of Cancer Quality of Life Questionnaire - Bone Metastases 22 Items Test Code,No,Instrument Test Code,HIGH,
C219716,EOR03TN,European Organization for the Research and Treatment of Cancer Quality of Life Questionnaire - Bone Metastases 22 Items Test Name,No,Instrument Test Name,HIGH,
C219719,EOR35TC,European Organization for the Research and Treatment of Cancer Quality of Life Questionnaire - Breast Cancer 42 Items Test Code,No,Instrument Test Code,HIGH,
C219718,EOR35TN,European Organization for the Research and Treatment of Cancer Quality of Life Questionnaire - Breast Cancer 42 Items Test Name,No,Instrument Test Name,HIGH,
C219715,EOR24TC,European Organization for the Research and Treatment of Cancer Quality of Life Questionnaire - Cholangiocarcinoma and Gallbladder Cancer 21 Items Questionnaire Test Code,No,Instrument Test Code,HIGH,
C219714,EOR24TN,European Organization for the Research and Treatment of Cancer Quality of Life Questionnaire - Cholangiocarcinoma and Gallbladder Cancer 21 Items Questionnaire Test Name,No,Instrument Test Name,HIGH,
C219721,EOR29TC,European Organization for the Research and Treatment of Cancer Quality of Life Questionnaire - Chronic Lymphocytic Leukaemia 17 Items Test Code,No,Instrument Test Code,HIGH,
C219720,EOR29TN,European Organization for the Research and Treatment of Cancer Quality of Life Questionnaire - Chronic Lymphocytic Leukaemia 17 Items Test Name,No,Instrument Test Name,HIGH,
C219727,EOR12TC,European Organization for the Research and Treatment of Cancer Quality of Life Questionnaire - Colorectal Liver Metastases 21 Items Test Code,No,Instrument Test Code,HIGH,
C219726,EOR12TN,European Organization for the Research and Treatment of Cancer Quality of Life Questionnaire - Colorectal Liver Metastases 21 Items Test Name,No,Instrument Test Name,HIGH,
C219735,EOR21TC,European Organization for the Research and Treatment of Cancer Quality of Life Questionnaire - Esophago-Gastric Cancer Phase IV Module Version 25 Items Test Code,No,Instrument Test Code,HIGH,
C219734,EOR21TN,European Organization for the Research and Treatment of Cancer Quality of Life Questionnaire - Esophago-Gastric Cancer Phase IV Module Version 25 Items Test Name,No,Instrument Test Name,HIGH,
C219723,EOR36TC,European Organization for the Research and Treatment of Cancer Quality of Life Questionnaire - Head and Neck Cancer Phase IV Module Version 43 Items Test Code,No,Instrument Test Code,HIGH,
C219722,EOR36TN,European Organization for the Research and Treatment of Cancer Quality of Life Questionnaire - Head and Neck Cancer Phase IV Module Version 43 Items Test Name,No,Instrument Test Name,HIGH,
C219725,EOR17TC,European Organization for the Research and Treatment of Cancer Quality of Life Questionnaire - Information 25 Items Test Code,No,Instrument Test Code,HIGH,
C219724,EOR17TN,European Organization for the Research and Treatment of Cancer Quality of Life Questionnaire - Information 25 Items Test Name,No,Instrument Test Name,HIGH,
C219729,EOR19TC,European Organization for the Research and Treatment of Cancer Quality of Life Questionnaire - Multiple Myeloma 20 Items Test Code,No,Instrument Test Code,HIGH,
C219728,EOR19TN,European Organization for the Research and Treatment of Cancer Quality of Life Questionnaire - Multiple Myeloma 20 Items Test Name,No,Instrument Test Name,HIGH,
C219731,EOR28TC,European Organization for the Research and Treatment of Cancer Quality of Life Questionnaire - Non-Muscle-Invasive Bladder Cancer 24 Items Test Code,No,Instrument Test Code,HIGH,
C219730,EOR28TN,European Organization for the Research and Treatment of Cancer Quality of Life Questionnaire - Non-Muscle-Invasive Bladder Cancer 24 Items Test Name,No,Instrument Test Name,HIGH,
C219733,EOR20TC,European Organization for the Research and Treatment of Cancer Quality of Life Questionnaire - Oesophageal Cancer 18 Items Test Code,No,Instrument Test Code,HIGH,
C219732,EOR20TN,European Organization for the Research and Treatment of Cancer Quality of Life Questionnaire - Oesophageal Cancer 18 Items Test Name,No,Instrument Test Name,HIGH,
C101817,EQ5D02TC,European Quality of Life Five Dimension Five Level Scale Questionnaire Test Code,No,Instrument Test Code,HIGH,
C101818,EQ5D02TN,European Quality of Life Five Dimension Five Level Scale Questionnaire Test Name,No,Instrument Test Name,HIGH,
C100136,EQ5D01TC,European Quality of Life Five Dimension Three Level Scale Questionnaire Test Code,No,Instrument Test Code,HIGH,
C100135,EQ5D01TN,European Quality of Life Five Dimension Three Level Scale Questionnaire Test Name,No,Instrument Test Name,HIGH,
C78735,EVAL,Evaluator,Yes,Role/Relationship,HIGH,
C123653,EXACT1TC,Exacerbations of Chronic Pulmonary Disease Tool Patient-Reported Outcome Questionnaire Test Code,No,Instrument Test Code,HIGH,
C123652,EXACT1TN,Exacerbations of Chronic Pulmonary Disease Tool Patient-Reported Outcome Questionnaire Test Name,No,Instrument Test Name,HIGH,
C125745,ED1TC,Expanded Disability Rating Scale - Postacute Interview Caregiver Version Questionnaire Test Code,No,Instrument Test Code,HIGH,
C125744,ED1TN,Expanded Disability Rating Scale - Postacute Interview Caregiver Version Questionnaire Test Name,No,Instrument Test Name,HIGH,
C125747,ED2TC,Expanded Disability Rating Scale - Postacute Interview Survivor Version Questionnaire Test Code,No,Instrument Test Code,HIGH,
C125746,ED2TN,Expanded Disability Rating Scale - Postacute Interview Survivor Version Questionnaire Test Name,No,Instrument Test Name,HIGH,
C115404,GOSE1TC,Extended Glasgow Outcome Scale Questionnaire Test Code,No,Instrument Test Code,HIGH,
C115403,GOSE1TN,Extended Glasgow Outcome Scale Questionnaire Test Name,No,Instrument Test Name,HIGH,
C117991,ESRSA1TC,Extrapyramidal Symptom Rating Scale-Abbreviated Clinical Classification Test Code,No,Instrument Test Code,HIGH,
C117990,ESRSA1TN,Extrapyramidal Symptom Rating Scale-Abbreviated Clinical Classification Test Name,No,Instrument Test Name,HIGH,
C100154,FPSR1TC,Faces Pain Scale - Revised Questionnaire Test Code,No,Instrument Test Code,HIGH,
C100153,FPSR1TN,Faces Pain Scale - Revised Questionnaire Test Name,No,Instrument Test Name,HIGH,
C208372,FTCD01TC,Fagerstrom Test for Cigarette Dependence Questionnaire Test Code,No,Instrument Test Code,HIGH,
C208371,FTCD01TN,Fagerstrom Test for Cigarette Dependence Questionnaire Test Name,No,Instrument Test Name,HIGH,
C193276,FES01TC,Falls Efficacy Scale Questionnaire Test Code,No,Instrument Test Code,HIGH,
C193275,FES01TN,Falls Efficacy Scale Questionnaire Test Name,No,Instrument Test Name,HIGH,
C113850,FSS01TC,Fatigue Severity Scale Questionnaire Test Code,No,Instrument Test Code,HIGH,
C113849,FSS01TN,Fatigue Severity Scale Questionnaire Test Name,No,Instrument Test Name,HIGH,
C160926,FDATSRS,FDA Technical Specification Response,Yes,Trial Design,HIGH,
C101832,FATESTCD,Findings About Test Code,Yes,Instrument Test Code,HIGH,
C101833,FATEST,Findings About Test Name,Yes,Instrument Test Name,HIGH,
C76351,SKINCLAS,Fitzpatrick Skin Classification Response,Yes,Clinical Classification,HIGH,
C124670,FCVD1TC,Framingham Heart Study Cardiovascular Disease 10-Year Risk Score Clinical Classification Test Code,No,Instrument Test Code,HIGH,
C124669,FCVD1TN,Framingham Heart Study Cardiovascular Disease 10-Year Risk Score Clinical Classification Test Name,No,Instrument Test Name,HIGH,
C71113,FREQ,Frequency,Yes,Treatment Qualifier,HIGH,
C111344,FAQ01TC,Functional Activities Questionnaire Clinical Classification Test Code,No,Instrument Test Code,HIGH,
C111343,FAQ01TN,Functional Activities Questionnaire Clinical Classification Test Name,No,Instrument Test Name,HIGH,
C179938,FAC065TC,Functional Assessment of Anorexia/Cachexia Treatment Version 4 Questionnaire Test Code,No,Instrument Test Code,HIGH,
C179937,FAC065TN,Functional Assessment of Anorexia/Cachexia Treatment Version 4 Questionnaire Test Name,No,Instrument Test Name,HIGH,
C150778,FAC062TC,Functional Assessment of Cancer Therapy-Biologic Response Modifiers Version 4 Questionnaire Test Code,No,Instrument Test Code,HIGH,
C150777,FAC062TN,Functional Assessment of Cancer Therapy-Biologic Response Modifiers Version 4 Questionnaire Test Name,No,Instrument Test Name,HIGH,
C154453,FAC006TC,Functional Assessment of Cancer Therapy-Bladder Version 4 Questionnaire Test Code,No,Instrument Test Code,HIGH,
C154452,FAC006TN,Functional Assessment of Cancer Therapy-Bladder Version 4 Questionnaire Test Name,No,Instrument Test Name,HIGH,
C147540,FAC061TC,Functional Assessment of Cancer Therapy-Bone Marrow Transplant Version 4 Questionnaire Test Code,No,Instrument Test Code,HIGH,
C147539,FAC061TN,Functional Assessment of Cancer Therapy-Bone Marrow Transplant Version 4 Questionnaire Test Name,No,Instrument Test Name,HIGH,
C179940,FAC074TC,Functional Assessment of Cancer Therapy-Bone Pain Version 4 Questionnaire Test Code,No,Instrument Test Code,HIGH,
C179939,FAC074TN,Functional Assessment of Cancer Therapy-Bone Pain Version 4 Questionnaire Test Name,No,Instrument Test Name,HIGH,
C138221,FAC029TC,Functional Assessment of Cancer Therapy-Brain Symptom Index Questionnaire Test Code,No,Instrument Test Code,HIGH,
C138220,FAC029TN,Functional Assessment of Cancer Therapy-Brain Symptom Index Questionnaire Test Name,No,Instrument Test Name,HIGH,
C129094,FAC005TC,Functional Assessment of Cancer Therapy-Breast Version 4 Questionnaire Test Code,No,Instrument Test Code,HIGH,
C129093,FAC005TN,Functional Assessment of Cancer Therapy-Breast Version 4 Questionnaire Test Name,No,Instrument Test Name,HIGH,
C166184,FAC075TC,Functional Assessment of Cancer Therapy-Cognitive Function Version 3 Questionnaire Test Code,No,Instrument Test Code,HIGH,
C166183,FAC075TN,Functional Assessment of Cancer Therapy-Cognitive Function Version 3 Questionnaire Test Name,No,Instrument Test Name,HIGH,
C150774,FAC008TC,Functional Assessment of Cancer Therapy-Colorectal Version 4 Questionnaire Test Code,No,Instrument Test Code,HIGH,
C150773,FAC008TN,Functional Assessment of Cancer Therapy-Colorectal Version 4 Questionnaire Test Name,No,Instrument Test Name,HIGH,
C130255,FAC015TC,Functional Assessment of Cancer Therapy-Hepatobiliary Version 4 Questionnaire Test Code,No,Instrument Test Code,HIGH,
C130254,FAC015TN,Functional Assessment of Cancer Therapy-Hepatobiliary Version 4 Questionnaire Test Name,No,Instrument Test Name,HIGH,
C138223,FAC039TC,Functional Assessment of Cancer Therapy-Kidney Symptom Index-15 Questionnaire Test Code,No,Instrument Test Code,HIGH,
C138222,FAC039TN,Functional Assessment of Cancer Therapy-Kidney Symptom Index-15 Questionnaire Test Name,No,Instrument Test Name,HIGH,
C150784,FAC041TC,Functional Assessment of Cancer Therapy-Kidney Symptom Index-Disease-Related Symptoms Version 4 Questionnaire Test Code,No,Instrument Test Code,HIGH,
C150783,FAC041TN,Functional Assessment of Cancer Therapy-Kidney Symptom Index-Disease-Related Symptoms Version 4 Questionnaire Test Name,No,Instrument Test Name,HIGH,
C130253,FAC017TC,Functional Assessment of Cancer Therapy-Leukemia Version 4 Questionnaire Test Code,No,Instrument Test Code,HIGH,
C130252,FAC017TN,Functional Assessment of Cancer Therapy-Leukemia Version 4 Questionnaire Test Name,No,Instrument Test Name,HIGH,
C138225,FAC043TC,Functional Assessment of Cancer Therapy-Lung Symptom Index Questionnaire Test Code,No,Instrument Test Code,HIGH,
C138224,FAC043TN,Functional Assessment of Cancer Therapy-Lung Symptom Index Questionnaire Test Name,No,Instrument Test Name,HIGH,
C150782,FAC016TC,Functional Assessment of Cancer Therapy-Lung Version 4 Questionnaire Test Code,No,Instrument Test Code,HIGH,
C150781,FAC016TN,Functional Assessment of Cancer Therapy-Lung Version 4 Questionnaire Test Name,No,Instrument Test Name,HIGH,
C130257,FAC018TC,Functional Assessment of Cancer Therapy-Lymphoma Version 4 Questionnaire Test Code,No,Instrument Test Code,HIGH,
C130256,FAC018TN,Functional Assessment of Cancer Therapy-Lymphoma Version 4 Questionnaire Test Name,No,Instrument Test Name,HIGH,
C213932,FAC019TC,Functional Assessment of Cancer Therapy-Melanoma Version 4 Questionnaire Test Code,No,Instrument Test Code,HIGH,
C213931,FAC019TN,Functional Assessment of Cancer Therapy-Melanoma Version 4 Questionnaire Test Name,No,Instrument Test Name,HIGH,
C129096,FAC049TC,Functional Assessment of Cancer Therapy-Ovarian Symptom Index Questionnaire Test Code,No,Instrument Test Code,HIGH,
C129095,FAC049TN,Functional Assessment of Cancer Therapy-Ovarian Symptom Index Questionnaire Test Name,No,Instrument Test Name,HIGH,
C150776,FAC063TC,Functional Assessment of Cancer Therapy-Taxane Version 4 Questionnaire Test Code,No,Instrument Test Code,HIGH,
C150775,FAC063TN,Functional Assessment of Cancer Therapy-Taxane Version 4 Questionnaire Test Name,No,Instrument Test Name,HIGH,
C208370,FAC102TC,Functional Assessment of Cancer Therapy/Gynecologic Oncology Group-Neurotoxicity Subscale Version 4 Questionnaire Test Code,No,Instrument Test Code,HIGH,
C208369,FAC102TN,Functional Assessment of Cancer Therapy/Gynecologic Oncology Group-Neurotoxicity Subscale Version 4 Questionnaire Test Name,No,Instrument Test Name,HIGH,
C150780,FAC057TC,Functional Assessment of Cancer Therapy/Gynecologic Oncology Group-Neurotoxicity Version 4 Questionnaire Test Code,No,Instrument Test Code,HIGH,
C150779,FAC057TN,Functional Assessment of Cancer Therapy/Gynecologic Oncology Group-Neurotoxicity Version 4 Questionnaire Test Name,No,Instrument Test Name,HIGH,
C147542,FAC084TC,Functional Assessment of Chronic Illness Therapy-Dyspnea 10 Item Short Form Questionnaire Test Code,No,Instrument Test Code,HIGH,
C147541,FAC084TN,Functional Assessment of Chronic Illness Therapy-Dyspnea 10 Item Short Form Questionnaire Test Name,No,Instrument Test Name,HIGH,
C154451,FAC100TC,Functional Assessment of Chronic Illness Therapy-Dyspnea Scale 33 Item Bank Questionnaire Test Code,No,Instrument Test Code,HIGH,
C154450,FAC100TN,Functional Assessment of Chronic Illness Therapy-Dyspnea Scale 33 Item Bank Questionnaire Test Name,No,Instrument Test Name,HIGH,
C147544,FAC070TC,Functional Assessment of Chronic Illness Therapy-Fatigue 13-Item Scale Version 4 Questionnaire Test Code,No,Instrument Test Code,HIGH,
C147543,FAC070TN,Functional Assessment of Chronic Illness Therapy-Fatigue 13-Item Scale Version 4 Questionnaire Test Name,No,Instrument Test Name,HIGH,
C129088,FAC071TC,Functional Assessment of Chronic Illness Therapy-Fatigue Version 4 Questionnaire Test Code,No,Instrument Test Code,HIGH,
C129087,FAC071TN,Functional Assessment of Chronic Illness Therapy-Fatigue Version 4 Questionnaire Test Name,No,Instrument Test Name,HIGH,
C199493,FAC101TC,Functional Assessment of Chronic Illness Therapy-Item GP5 Version 4 Questionnaire Test Code,No,Instrument Test Code,HIGH,
C199492,FAC101TN,Functional Assessment of Chronic Illness Therapy-Item GP5 Version 4 Questionnaire Test Name,No,Instrument Test Name,HIGH,
C183551,FSILTC,Functional Assessment of Chronic Illness Therapy-Searchable Item Library Adult Questionnaire Test Code,No,Instrument Test Code,HIGH,
C183550,FSILTN,Functional Assessment of Chronic Illness Therapy-Searchable Item Library Adult Questionnaire Test Name,No,Instrument Test Name,HIGH,
C200915,FSLPTC,Functional Assessment of Chronic Illness Therapy-Searchable Item Library Pediatric Questionnaire Test Code,No,Instrument Test Code,HIGH,
C200914,FSLPTN,Functional Assessment of Chronic Illness Therapy-Searchable Item Library Pediatric Questionnaire Test Name,No,Instrument Test Name,HIGH,
C112441,FAMS01TC,Functional Assessment of Multiple Sclerosis Version 4 Questionnaire Test Code,No,Instrument Test Code,HIGH,
C112440,FAMS01TN,Functional Assessment of Multiple Sclerosis Version 4 Questionnaire Test Name,No,Instrument Test Name,HIGH,
C111346,FAQNA1TC,Functional Assessment Questionnaire-NACC UDS V2.0 Clinical Classification Test Code,No,Instrument Test Code,HIGH,
C111345,FAQNA1TN,Functional Assessment Questionnaire-NACC UDS V2.0 Clinical Classification Test Name,No,Instrument Test Name,HIGH,
C170523,FASNA1TC,Functional Assessment Scale-NACC UDS Version 3.0 Clinical Classification Test Code,No,Instrument Test Code,HIGH,
C170522,FASNA1TN,Functional Assessment Scale-NACC UDS Version 3.0 Clinical Classification Test Name,No,Instrument Test Name,HIGH,
C128682,GASTROCD,Gastrointestinal Test Code,Yes,Instrument Test Code,HIGH,
C128681,GASTRO,Gastrointestinal Test Name,Yes,Instrument Test Name,HIGH,
C209289,GENIDENT,Gender Identity Response,Yes,Demographic,HIGH,
C105138,GCGI01TC,General Clinical Global Impressions Questionnaire Test Code,No,Instrument Test Code,HIGH,
C105137,GCGI01TN,General Clinical Global Impressions Questionnaire Test Name,No,Instrument Test Name,HIGH,
C103467,GAD01TC,Generalized Anxiety Disorder - 7 Questionnaire Test Code,No,Instrument Test Code,HIGH,
C103466,GAD01TN,Generalized Anxiety Disorder - 7 Questionnaire Test Name,No,Instrument Test Name,HIGH,
C163389,GAD02TC,Generalized Anxiety Disorder - 7 Version 2 Questionnaire Test Code,No,Instrument Test Code,HIGH,
C163388,GAD02TN,Generalized Anxiety Disorder - 7 Version 2 Questionnaire Test Name,No,Instrument Test Name,HIGH,
C111114,GENSMP,Genetic Sample Type,Yes,Specimen,HIGH,
C181181,GFANMET,Genomic Findings Analytical Method Calculation Formula,Yes,Method,HIGH,
C181178,GFTESTCD,Genomic Findings Test Code,Yes,Instrument Test Code,HIGH,
C181180,GFTSDTL,Genomic Findings Test Detail,Yes,Genomic,HIGH,
C181179,GFTEST,Genomic Findings Test Name,Yes,Instrument Test Name,HIGH,
C181177,INHERTGF,Genomic Inheritability Type Response,Yes,Genomic,HIGH,
C181176,SYMTYPGF,Genomic Symbol Type Response,Yes,Genomic,HIGH,
C106663,GDS01TC,Geriatric Depression Scale Questionnaire Test Code,No,Instrument Test Code,HIGH,
C106662,GDS01TN,Geriatric Depression Scale Questionnaire Test Name,No,Instrument Test Name,HIGH,
C106665,GDS02TC,Geriatric Depression Scale Short Form Questionnaire Test Code,No,Instrument Test Code,HIGH,
C106664,GDS02TN,Geriatric Depression Scale Short Form Questionnaire Test Name,No,Instrument Test Name,HIGH,
C124682,GCS01TC,Glasgow Coma Scale NINDS Version 1.0 Clinical Classification Test Code,No,Instrument Test Code,HIGH,
C124681,GCS01TN,Glasgow Coma Scale NINDS Version 1.0 Clinical Classification Test Name,No,Instrument Test Name,HIGH,
C117737,GRAFTTYP,Graft Type,Yes,Device,HIGH,
C182468,HAMA101T14OR,Hamilton Anxiety Rating Scale Clinical Classification ORRES for HAMA101 Through HAMA114 TN/TC,No,Instrument Original Result,HIGH,
C182506,HAMA101T14STR,Hamilton Anxiety Rating Scale Clinical Classification STRESC for HAMA101 Through HAMA114 TN/TC,No,Instrument Standardized Result,HIGH,
C101819,HAMA1TC,Hamilton Anxiety Rating Scale Clinical Classification Test Code,No,Instrument Test Code,HIGH,
C101820,HAMA1TN,Hamilton Anxiety Rating Scale Clinical Classification Test Name,No,Instrument Test Name,HIGH,
C100138,HAMD1TC,Hamilton Depression Rating Scale - 17 Item Clinical Classification Test Code,No,Instrument Test Code,HIGH,
C100137,HAMD1TN,Hamilton Depression Rating Scale - 17 Item Clinical Classification Test Name,No,Instrument Test Name,HIGH,
C130245,HAMD3TC,Hamilton Depression Rating Scale - 24 Item Clinical Classification Test Code,No,Instrument Test Code,HIGH,
C130244,HAMD3TN,Hamilton Depression Rating Scale - 24 Item Clinical Classification Test Name,No,Instrument Test Name,HIGH,
C130243,HAMD4TC,Hamilton Depression Rating Scale - 6 Clinician Version Clinical Classification Test Code,No,Instrument Test Code,HIGH,
C130242,HAMD4TN,Hamilton Depression Rating Scale - 6 Clinician Version Clinical Classification Test Name,No,Instrument Test Name,HIGH,
C130259,HAMDS1TC,Hamilton Depression Rating Scale - 6 Self-Report Questionnaire Test Code,No,Instrument Test Code,HIGH,
C130258,HAMDS1TN,Hamilton Depression Rating Scale - 6 Self-Report Questionnaire Test Name,No,Instrument Test Name,HIGH,
C101821,HAMD2TC,Hamilton Depression Rating Scale 21-Item Clinical Classification Test Code,No,Instrument Test Code,HIGH,
C101822,HAMD2TN,Hamilton Depression Rating Scale 21-Item Clinical Classification Test Name,No,Instrument Test Name,HIGH,
C190885,HBI0101OR,Harvey-Bradshaw Index Clinical Classification ORRES for HBI0101 TN/TC,No,Instrument Original Result,HIGH,
C190887,HBI0102OR,Harvey-Bradshaw Index Clinical Classification ORRES for HBI0102 TN/TC,No,Instrument Original Result,HIGH,
C190889,HBI0104OR,Harvey-Bradshaw Index Clinical Classification ORRES for HBI0104 TN/TC,No,Instrument Original Result,HIGH,
C190891,HBI0105AT05HOR,Harvey-Bradshaw Index Clinical Classification ORRES for HBI0105A Through HBI0105H TN/TC,No,Instrument Original Result,HIGH,
C190886,HBI0101STR,Harvey-Bradshaw Index Clinical Classification STRESC for HBI0101 TN/TC,No,Instrument Standardized Result,HIGH,
C190888,HBI0102STR,Harvey-Bradshaw Index Clinical Classification STRESC for HBI0102 TN/TC,No,Instrument Standardized Result,HIGH,
C190890,HBI0104STR,Harvey-Bradshaw Index Clinical Classification STRESC for HBI0104 TN/TC,No,Instrument Standardized Result,HIGH,
C190892,HBI0105AT05HSTR,Harvey-Bradshaw Index Clinical Classification STRESC for HBI0105A Through HBI0105H TN/TC,No,Instrument Standardized Result,HIGH,
C190926,HBI01TC,Harvey-Bradshaw Index Clinical Classification Test Code,No,Instrument Test Code,HIGH,
C190925,HBI01TN,Harvey-Bradshaw Index Clinical Classification Test Name,No,Instrument Test Name,HIGH,
C138213,HSB01TC,HAS-BLED Bleeding Risk Score Clinical Classification Test Code,No,Instrument Test Code,HIGH,
C138212,HSB01TN,HAS-BLED Bleeding Risk Score Clinical Classification Test Name,No,Instrument Test Name,HIGH,
C115390,HAI01TC,Hauser Ambulation Index Functional Test Test Code,No,Instrument Test Code,HIGH,
C115389,HAI01TN,Hauser Ambulation Index Functional Test Test Name,No,Instrument Test Name,HIGH,
C106667,HAQ01TC,Health Assessment Questionnaire Disability Index With Pain Visual Analog Scale Questionnaire Test Code,No,Instrument Test Code,HIGH,
C106666,HAQ01TN,Health Assessment Questionnaire Disability Index With Pain Visual Analog Scale Questionnaire Test Name,No,Instrument Test Name,HIGH,
C132523,HAQ02TC,Health Assessment Questionnaire Disability Index Without Pain Visual Analog Scale Questionnaire Test Code,No,Instrument Test Code,HIGH,
C132522,HAQ02TN,Health Assessment Questionnaire Disability Index Without Pain Visual Analog Scale Questionnaire Test Name,No,Instrument Test Name,HIGH,
C171444,HODECOD,Health Care Encounters Dictionary Derived Term,Yes,Dictionary Reference,HIGH,
C184330,HEGRDMTH,Holter ECG Read Method Response,Yes,Method,HIGH,
C120522,HESTRESC,Holter ECG Results,Yes,ECG Findings,HIGH,
C120523,HETESTCD,Holter ECG Test Code,Yes,Instrument Test Code,HIGH,
C120524,HETEST,Holter ECG Test Name,Yes,Instrument Test Name,HIGH,
C103469,HADS01TC,Hospital Anxiety and Depression Scale Questionnaire Test Code,No,Instrument Test Code,HIGH,
C103468,HADS01TN,Hospital Anxiety and Depression Scale Questionnaire Test Name,No,Instrument Test Name,HIGH,
C166188,HDCAB1TC,Huntington's Disease Cognitive Assessment Battery Functional Test Test Code,No,Instrument Test Code,HIGH,
C166187,HDCAB1TN,Huntington's Disease Cognitive Assessment Battery Functional Test Test Name,No,Instrument Test Name,HIGH,
C163393,HCS01TC,Hypoglycemic Confidence Scale Questionnaire Test Code,No,Instrument Test Code,HIGH,
C163392,HCS01TN,Hypoglycemic Confidence Scale Questionnaire Test Name,No,Instrument Test Name,HIGH,
C120525,ISTESTCD,Immunogenicity Specimen Assessments Test Code,Yes,Instrument Test Code,HIGH,
C120526,ISTEST,Immunogenicity Specimen Assessments Test Name,Yes,Instrument Test Name,HIGH,
C189267,ISFTSDTL,Immunogenicity Specimen Test Details,Yes,Specimen,HIGH,
C113856,IVIS01TC,Impact of Visual Impairment Scale Questionnaire Test Code,No,Instrument Test Code,HIGH,
C113855,IVIS01TN,Impact of Visual Impairment Scale Questionnaire Test Name,No,Instrument Test Name,HIGH,
C204423,IGDCMPLX,Ingredient Complexity Response,Yes,Observation Qualifier,HIGH,
C170445,INTEGUCD,Integumentary System Test Code,Yes,Instrument Test Code,HIGH,
C170444,INTEGU,Integumentary System Test Name,Yes,Instrument Test Name,HIGH,
C103471,IIEF01TC,International Index of Erectile Function Questionnaire Test Code,No,Instrument Test Code,HIGH,
C103470,IIEF01TN,International Index of Erectile Function Questionnaire Test Name,No,Instrument Test Name,HIGH,
C141665,IPAQ04TC,International Physical Activity Questionnaire (August 2002) Short Last 7 Days Self-Administered Format Questionnaire Test Code,No,Instrument Test Code,HIGH,
C141664,IPAQ04TN,International Physical Activity Questionnaire (August 2002) Short Last 7 Days Self-Administered Format Questionnaire Test Name,No,Instrument Test Name,HIGH,
C141671,IPAQ01TC,International Physical Activity Questionnaire (August 2002) Short Last 7 Days Telephone Format Questionnaire Test Code,No,Instrument Test Code,HIGH,
C141670,IPAQ01TN,International Physical Activity Questionnaire (August 2002) Short Last 7 Days Telephone Format Questionnaire Test Name,No,Instrument Test Name,HIGH,
C141669,IPAQ02TC,International Physical Activity Questionnaire (November 2002) Long Last 7 Days Telephone Format Questionnaire Test Code,No,Instrument Test Code,HIGH,
C141668,IPAQ02TN,International Physical Activity Questionnaire (November 2002) Long Last 7 Days Telephone Format Questionnaire Test Name,No,Instrument Test Name,HIGH,
C141667,IPAQ03TC,International Physical Activity Questionnaire (October 2002) Long Last 7 Days Self-Administered Format Questionnaire Test Code,No,Instrument Test Code,HIGH,
C141666,IPAQ03TN,International Physical Activity Questionnaire (October 2002) Long Last 7 Days Self-Administered Format Questionnaire Test Name,No,Instrument Test Name,HIGH,
C182461,IPS0101T06OR,International Prostate Symptom Score Questionnaire ORRES for IPS0101 Through IPS0106 TN/TC,No,Instrument Original Result,HIGH,
C182462,IPS0107OR,International Prostate Symptom Score Questionnaire ORRES for IPS0107 TN/TC,No,Instrument Original Result,HIGH,
C182463,IPS0109OR,International Prostate Symptom Score Questionnaire ORRES for IPS0109 TN/TC,No,Instrument Original Result,HIGH,
C182499,IPS0101T06STR,International Prostate Symptom Score Questionnaire STRESC for IPS0101 Through IPS0106 TN/TC,No,Instrument Standardized Result,HIGH,
C182500,IPS0107STR,International Prostate Symptom Score Questionnaire STRESC for IPS0107 TN/TC,No,Instrument Standardized Result,HIGH,
C182501,IPS0109STR,International Prostate Symptom Score Questionnaire STRESC for IPS0109 TN/TC,No,Instrument Standardized Result,HIGH,
C183547,IPS01TC,International Prostate Symptom Score Questionnaire Test Code,No,Instrument Test Code,HIGH,
C183546,IPS01TN,International Prostate Symptom Score Questionnaire Test Name,No,Instrument Test Name,HIGH,
C209288,ISXDXRS,Intersex Diagnosis Indicator Response,No,Clinical Classification,HIGH,
C99076,INTMODEL,Intervention Model Response,Yes,Trial Design,HIGH,
C99078,INTTYPE,Intervention Type Response,No,Trial Design,HIGH,
C130247,IDSC1TC,Inventory of Depressive Symptomatology Clinician-Rated Version Clinical Classification Test Code,No,Instrument Test Code,HIGH,
C130246,IDSC1TN,Inventory of Depressive Symptomatology Clinician-Rated Version Clinical Classification Test Name,No,Instrument Test Name,HIGH,
C130261,IDSR1TC,Inventory of Depressive Symptomatology Self-Report Version Questionnaire Test Code,No,Instrument Test Code,HIGH,
C130260,IDSR1TN,Inventory of Depressive Symptomatology Self-Report Version Questionnaire Test Name,No,Instrument Test Name,HIGH,
C124684,CRSR01TC,JFK Coma Recovery Scale-Revised Clinical Classification Test Code,No,Instrument Test Code,HIGH,
C124683,CRSR01TN,JFK Coma Recovery Scale-Revised Clinical Classification Test Name,No,Instrument Test Name,HIGH,
C182469,KPSS0101OR,Karnofsky Performance Status Scale Clinical Classification ORRES for KPSS0101 TN/TC,No,Instrument Original Result,HIGH,
C182507,KPSS0101STR,Karnofsky Performance Status Scale Clinical Classification STRESC for KPSS0101 TN/TC,No,Instrument Standardized Result,HIGH,
C100170,KPSS01TC,Karnofsky Performance Status Scale Clinical Classification Test Code,No,Instrument Test Code,HIGH,
C100169,KPSS01TN,Karnofsky Performance Status Scale Clinical Classification Test Name,No,Instrument Test Name,HIGH,
C193274,KDQ1TC,Kidney Disease and Quality of Life-36 Version 1 Questionnaire Test Code,No,Instrument Test Code,HIGH,
C193273,KDQ1TN,Kidney Disease and Quality of Life-36 Version 1 Questionnaire Test Name,No,Instrument Test Name,HIGH,
C170529,KDIGO1TC,Kidney Disease Improving Global Outcomes Staging For Acute Kidney Injury Clinical Classification Test Code,No,Instrument Test Code,HIGH,
C170528,KDIGO1TN,Kidney Disease Improving Global Outcomes Staging For Acute Kidney Injury Clinical Classification Test Name,No,Instrument Test Name,HIGH,
C130251,KDPI01TC,Kidney Donor Profile Index Clinical Classification Test Code,No,Instrument Test Code,HIGH,
C130250,KDPI01TN,Kidney Donor Profile Index Clinical Classification Test Name,No,Instrument Test Name,HIGH,
C101840,KILLIPC,Killip Class Responses,No,Clinical Classification,HIGH,
C112439,EDSS01TC,Kurtzke Expanded Disability Status Scale Clinical Classification Test Code,No,Instrument Test Code,HIGH,
C112438,EDSS01TN,Kurtzke Expanded Disability Status Scale Clinical Classification Test Name,No,Instrument Test Name,HIGH,
C182475,KFSS101OR,Kurtzke Functional System Scores Clinical Classification ORRES for KFSS101 TN/TC,No,Instrument Original Result,HIGH,
C182476,KFSS102OR,Kurtzke Functional System Scores Clinical Classification ORRES for KFSS102 TN/TC,No,Instrument Original Result,HIGH,
C182478,KFSS103OR,Kurtzke Functional System Scores Clinical Classification ORRES for KFSS103 TN/TC,No,Instrument Original Result,HIGH,
C182479,KFSS104OR,Kurtzke Functional System Scores Clinical Classification ORRES for KFSS104 TN/TC,No,Instrument Original Result,HIGH,
C182480,KFSS105OR,Kurtzke Functional System Scores Clinical Classification ORRES for KFSS105 TN/TC,No,Instrument Original Result,HIGH,
C182481,KFSS106OR,Kurtzke Functional System Scores Clinical Classification ORRES for KFSS106 TN/TC,No,Instrument Original Result,HIGH,
C182482,KFSS107OR,Kurtzke Functional System Scores Clinical Classification ORRES for KFSS107 TN/TC,No,Instrument Original Result,HIGH,
C182483,KFSS108OR,Kurtzke Functional System Scores Clinical Classification ORRES for KFSS108 TN/TC,No,Instrument Original Result,HIGH,
C182477,KFSS1SET1OR,Kurtzke Functional System Scores Clinical Classification ORRES the Same as KFSS102A TN/TC,No,Instrument Original Result,HIGH,
C182513,KFSS101STR,Kurtzke Functional System Scores Clinical Classification STRESC for KFSS101 TN/TC,No,Instrument Standardized Result,HIGH,
C182514,KFSS102STR,Kurtzke Functional System Scores Clinical Classification STRESC for KFSS102 TN/TC,No,Instrument Standardized Result,HIGH,
C182516,KFSS103STR,Kurtzke Functional System Scores Clinical Classification STRESC for KFSS103 TN/TC,No,Instrument Standardized Result,HIGH,
C182517,KFSS104STR,Kurtzke Functional System Scores Clinical Classification STRESC for KFSS104 TN/TC,No,Instrument Standardized Result,HIGH,
C182518,KFSS105STR,Kurtzke Functional System Scores Clinical Classification STRESC for KFSS105 TN/TC,No,Instrument Standardized Result,HIGH,
C182519,KFSS106STR,Kurtzke Functional System Scores Clinical Classification STRESC for KFSS106 TN/TC,No,Instrument Standardized Result,HIGH,
C182520,KFSS107STR,Kurtzke Functional System Scores Clinical Classification STRESC for KFSS107 TN/TC,No,Instrument Standardized Result,HIGH,
C182521,KFSS108STR,Kurtzke Functional System Scores Clinical Classification STRESC for KFSS108 TN/TC,No,Instrument Standardized Result,HIGH,
C182515,KFSS1SET1STR,Kurtzke Functional System Scores Clinical Classification STRESC the Same as KFSS102A TN/TC,No,Instrument Standardized Result,HIGH,
C112443,KFSS1TC,Kurtzke Functional Systems Scores Clinical Classification Test Code,No,Instrument Test Code,HIGH,
C112442,KFSS1TN,Kurtzke Functional Systems Scores Clinical Classification Test Name,No,Instrument Test Name,HIGH,
C160922,LBANMET,Laboratory Analytical Method Calculation Formula,Yes,Method,HIGH,
C65047,LBTESTCD,Laboratory Test Code,Yes,Instrument Test Code,HIGH,
C67154,LBTEST,Laboratory Test Name,Yes,Instrument Test Name,HIGH,
C102580,LBSTRESC,Laboratory Test Standard Character Result,Yes,Observation Qualifier,HIGH,
C138215,LPPSS1TC,Lansky Play-Performance Status Scale Clinical Classification Test Code,No,Instrument Test Code,HIGH,
C138214,LPPSS1TN,Lansky Play-Performance Status Scale Clinical Classification Test Name,No,Instrument Test Name,HIGH,
C99073,LAT,Laterality,Yes,Anatomical Qualifier,HIGH,
C101862,LEADABN,Lead Abnormality,Yes,Device,HIGH,
C101867,LEADSTAT,Lead Status,Yes,Disposition,HIGH,
C101868,LVEFMRE,Left Ventricular Ejection Fraction Measurement Result,Yes,Observation Qualifier,HIGH,
C101861,LSNCMPX,Lesion Complexity,No,Clinical Classification,HIGH,
C135690,LEC01TC,Life Events Checklist for DSM-5 Standard Version Questionnaire Test Code,No,Instrument Test Code,HIGH,
C135689,LEC01TN,Life Events Checklist for DSM-5 Standard Version Questionnaire Test Name,No,Instrument Test Name,HIGH,
C101851,GRSTNLOC,Location of Most Severe Stenosis Within a Graft,No,Oncology Assessment,HIGH,
C202306,DPETSCRS,London Deauville Criteria Point Scale 2014,No,Clinical Classification,HIGH,
C154687,LUFATSCD,Lung Cancer Findings About Test Code,Yes,Instrument Test Code,HIGH,
C154688,LUFATS,Lung Cancer Findings About Test Name,Yes,Instrument Test Name,HIGH,
C132320,MRFATSCD,Malaria Findings About Test Code,Yes,Instrument Test Code,HIGH,
C132319,MRFATS,Malaria Findings About Test Name,Yes,Instrument Test Name,HIGH,
C76348,MARISTAT,Marital Status Response,Yes,Demographic,HIGH,
C115406,MPAI1TC,Mayo-Portland Adaptability Inventory-4 Questionnaire Test Code,No,Instrument Test Code,HIGH,
C115405,MPAI1TN,Mayo-Portland Adaptability Inventory-4 Questionnaire Test Name,No,Instrument Test Name,HIGH,
C101845,MCRCSPTM,Mechanical Circulatory Support Placement Timing,No,Clinical Classification,HIGH,
C96777,MEDEVAL,Medical Evaluator Identifier,Yes,Role/Relationship,HIGH,
C124301,MHEDTTYP,Medical History Event Date Type,Yes,Observation Qualifier,HIGH,
C185847,MPSTATRS,Menopause Status Response,No,Disposition,HIGH,
C85492,METHOD,Method,Yes,Method,HIGH,
C100152,MNSI1TC,Michigan Neuropathy Screening Instrument Questionnaire Test Code,No,Instrument Test Code,HIGH,
C100151,MNSI1TN,Michigan Neuropathy Screening Instrument Questionnaire Test Name,No,Instrument Test Name,HIGH,
C102581,MCIDCERT,Microbial Identification Certainty,No,Clinical Classification,HIGH,
C174225,MBFTSDTL,Microbiology Findings Test Details,Yes,Microbiology/Immunology,HIGH,
C128688,MSTESTCD,Microbiology Susceptibility Test Code,Yes,Instrument Test Code,HIGH,
C128687,MSTEST,Microbiology Susceptibility Test Name,Yes,Instrument Test Name,HIGH,
C213530,MSSTRESC,Microbiology Susceptibility Test Standard Character Result,Yes,Microbiology/Immunology,HIGH,
C120527,MBTESTCD,Microbiology Test Code,Yes,Instrument Test Code,HIGH,
C120528,MBTEST,Microbiology Test Name,Yes,Instrument Test Name,HIGH,
C85491,MICROORG,Microorganism,Yes,Microbiology/Immunology,HIGH,
C125922,MIFTSDTL,Microscopic Findings Test Details,Yes,Microbiology/Immunology,HIGH,
C150770,MMS2TC,Mini-Mental State Examination 2 Standard Version Functional Test Test Code,No,Instrument Test Code,HIGH,
C150769,MMS2TN,Mini-Mental State Examination 2 Standard Version Functional Test Test Name,No,Instrument Test Name,HIGH,
C100142,MMS1TC,Mini-Mental State Examination Functional Test Test Code,No,Instrument Test Code,HIGH,
C100141,MMS1TN,Mini-Mental State Examination Functional Test Test Name,No,Instrument Test Name,HIGH,
C202147,MTWSR101T15OR,Minnesota Tobacco Withdrawal Scale-Revised Clinical Classification ORRES for MTWSR101 Through MTWSR115 TN/TC,No,Instrument Original Result,HIGH,
C202148,MTWSR101T15STR,Minnesota Tobacco Withdrawal Scale-Revised Clinical Classification STRESC for MTWSR101 Through MTWSR115 TN/TC,No,Instrument Standardized Result,HIGH,
C202146,MTWSR1TC,Minnesota Tobacco Withdrawal Scale-Revised Clinical Classification Test Code,No,Instrument Test Code,HIGH,
C202145,MTWSR1TN,Minnesota Tobacco Withdrawal Scale-Revised Clinical Classification Test Name,No,Instrument Test Name,HIGH,
C181165,MODDLV,Mode of Delivery,Yes,Treatment Qualifier,HIGH,
C127265,MODTRN,Mode of Disease Transmission,Yes,Observation Qualifier,HIGH,
C171445,CNTMODE,Mode of Subject Contact,Yes,Role/Relationship,HIGH,
C213936,MELD02TC,Model for End Stage Liver Disease - Serum Na 2008 Clinical Classification Test Code,No,Instrument Test Code,HIGH,
C213935,MELD02TN,Model for End Stage Liver Disease - Serum Na 2008 Clinical Classification Test Name,No,Instrument Test Name,HIGH,
C120991,MELD01TC,Model for End Stage Liver Disease Clinical Classification Test Code,No,Instrument Test Code,HIGH,
C120990,MELD01TN,Model for End Stage Liver Disease Clinical Classification Test Name,No,Instrument Test Name,HIGH,
C213934,MCEQ01TC,Modified Cigarette Evaluation Questionnaire Test Code,No,Instrument Test Code,HIGH,
C213933,MCEQ01TN,Modified Cigarette Evaluation Questionnaire Test Name,No,Instrument Test Name,HIGH,
C113858,MFIS01TC,Modified Fatigue Impact Scale Questionnaire Test Code,No,Instrument Test Code,HIGH,
C113857,MFIS01TN,Modified Fatigue Impact Scale Questionnaire Test Name,No,Instrument Test Name,HIGH,
C112445,MHIS01TC,Modified Hachinski Ischemic Scale-NACC Version Questionnaire Test Code,No,Instrument Test Code,HIGH,
C112444,MHIS01TN,Modified Hachinski Ischemic Scale-NACC Version Questionnaire Test Name,No,Instrument Test Name,HIGH,
C106669,MMRC01TC,Modified Medical Research Council Dyspnea Scale Questionnaire Test Code,No,Instrument Test Code,HIGH,
C106668,MMRC01TN,Modified Medical Research Council Dyspnea Scale Questionnaire Test Name,No,Instrument Test Name,HIGH,
C111348,MRS01TC,Modified Rankin Scale Clinical Classification Test Code,No,Instrument Test Code,HIGH,
C111347,MRS01TN,Modified Rankin Scale Clinical Classification Test Name,No,Instrument Test Name,HIGH,
C190893,MVAI101OR,Modified Van Assche Index Clinical Classification ORRES for MVAI101 TN/TC,No,Instrument Original Result,HIGH,
C190895,MVAI102OR,Modified Van Assche Index Clinical Classification ORRES for MVAI102 TN/TC,No,Instrument Original Result,HIGH,
C190897,MVAI103OR,Modified Van Assche Index Clinical Classification ORRES for MVAI103 TN/TC,No,Instrument Original Result,HIGH,
C190899,MVAI104OR,Modified Van Assche Index Clinical Classification ORRES for MVAI104 TN/TC,No,Instrument Original Result,HIGH,
C190901,MVAI105OR,Modified Van Assche Index Clinical Classification ORRES for MVAI105 TN/TC,No,Instrument Original Result,HIGH,
C190894,MVAI101STR,Modified Van Assche Index Clinical Classification STRESC for MVAI101 TN/TC,No,Instrument Standardized Result,HIGH,
C190896,MVAI102STR,Modified Van Assche Index Clinical Classification STRESC for MVAI102 TN/TC,No,Instrument Standardized Result,HIGH,
C190898,MVAI103STR,Modified Van Assche Index Clinical Classification STRESC for MVAI103 TN/TC,No,Instrument Standardized Result,HIGH,
C190900,MVAI104STR,Modified Van Assche Index Clinical Classification STRESC for MVAI104 TN/TC,No,Instrument Standardized Result,HIGH,
C190902,MVAI105STR,Modified Van Assche Index Clinical Classification STRESC for MVAI105 TN/TC,No,Instrument Standardized Result,HIGH,
C190930,MVAI1TC,Modified Van Assche Index Clinical Classification Test Code,No,Instrument Test Code,HIGH,
C190929,MVAI1TN,Modified Van Assche Index Clinical Classification Test Name,No,Instrument Test Name,HIGH,
C190928,MCHR01TC,Montreal Classification for Crohn's Disease Clinical Classification Test Code,No,Instrument Test Code,HIGH,
C190927,MCHR01TN,Montreal Classification for Crohn's Disease Clinical Classification Test Name,No,Instrument Test Name,HIGH,
C100140,UPD2TC,Movement Disorder Society Unified Parkinson's Disease Rating Scale Questionnaire Test Code,No,Instrument Test Code,HIGH,
C100139,UPD2TN,Movement Disorder Society Unified Parkinson's Disease Rating Scale Questionnaire Test Name,No,Instrument Test Name,HIGH,
C117741,MSFATSCD,Multiple Sclerosis Findings About Test Code,Yes,Instrument Test Code,HIGH,
C117740,MSFATS,Multiple Sclerosis Findings About Test Name,Yes,Instrument Test Name,HIGH,
C113860,MSQL1TC,Multiple Sclerosis Quality of Life-54 Instrument Questionnaire Test Code,No,Instrument Test Code,HIGH,
C113859,MSQL1TN,Multiple Sclerosis Quality of Life-54 Instrument Questionnaire Test Name,No,Instrument Test Name,HIGH,
C127269,MUSCTSCD,Musculoskeletal System Finding Test Code,Yes,Instrument Test Code,HIGH,
C127270,MUSCTS,Musculoskeletal System Finding Test Name,Yes,Instrument Test Name,HIGH,
C129092,FAC028TC,National Comprehensive Cancer Network/Functional Assessment of Cancer Therapy-Bladder Symptom Index-18 Version 2 Questionnaire Test Code,No,Instrument Test Code,HIGH,
C129091,FAC028TN,National Comprehensive Cancer Network/Functional Assessment of Cancer Therapy-Bladder Symptom Index-18 Version 2 Questionnaire Test Name,No,Instrument Test Name,HIGH,
C150786,FAC030TC,National Comprehensive Cancer Network/Functional Assessment of Cancer Therapy-Brain Symptom Index-24 Version 2 Questionnaire Test Code,No,Instrument Test Code,HIGH,
C150785,FAC030TN,National Comprehensive Cancer Network/Functional Assessment of Cancer Therapy-Brain Symptom Index-24 Version 2 Questionnaire Test Name,No,Instrument Test Name,HIGH,
C150788,FAC036TC,National Comprehensive Cancer Network/Functional Assessment of Cancer Therapy-Head & Neck Symptom Index-22 Version 2 Questionnaire Test Code,No,Instrument Test Code,HIGH,
C150787,FAC036TN,National Comprehensive Cancer Network/Functional Assessment of Cancer Therapy-Head & Neck Symptom Index-22 Version 2 Questionnaire Test Name,No,Instrument Test Name,HIGH,
C129090,FAC042TC,National Comprehensive Cancer Network/Functional Assessment of Cancer Therapy-Kidney Symptom Index-19 Version 2 Questionnaire Test Code,No,Instrument Test Code,HIGH,
C129089,FAC042TN,National Comprehensive Cancer Network/Functional Assessment of Cancer Therapy-Kidney Symptom Index-19 Version 2 Questionnaire Test Name,No,Instrument Test Name,HIGH,
C129098,FAC050TC,National Comprehensive Cancer Network/Functional Assessment of Cancer Therapy-Ovarian Symptom Index-18 Version 2 Questionnaire Test Code,No,Instrument Test Code,HIGH,
C129097,FAC050TN,National Comprehensive Cancer Network/Functional Assessment of Cancer Therapy-Ovarian Symptom Index-18 Version 2 Questionnaire Test Name,No,Instrument Test Name,HIGH,
C171355,NEWS1TC,National Early Warning Score 2 Clinical Classification Test Code,No,Instrument Test Code,HIGH,
C171354,NEWS1TN,National Early Warning Score 2 Clinical Classification Test Name,No,Instrument Test Name,HIGH,
C112453,VFQ1TC,National Eye Institute Visual Functioning Questionnaire - 25 Version 2000 Interviewer-Administered Format Questionnaire Test Code,No,Instrument Test Code,HIGH,
C112452,VFQ1TN,National Eye Institute Visual Functioning Questionnaire - 25 Version 2000 Interviewer-Administered Format Questionnaire Test Name,No,Instrument Test Name,HIGH,
C112455,VFQ2TC,National Eye Institute Visual Functioning Questionnaire - 25 Version 2000 Self-Administered Format Questionnaire Test Code,No,Instrument Test Code,HIGH,
C112454,VFQ2TN,National Eye Institute Visual Functioning Questionnaire - 25 Version 2000 Self-Administered Format Questionnaire Test Name,No,Instrument Test Name,HIGH,
C208380,NY1TC,National Youth Tobacco Survey 2022 Questionnaire Test Code,No,Instrument Test Code,HIGH,
C208379,NY1TN,National Youth Tobacco Survey 2022 Questionnaire Test Name,No,Instrument Test Name,HIGH,
C120993,NSA01TC,Negative Symptom Assessment-16 Clinical Classification Test Code,No,Instrument Test Code,HIGH,
C120992,NSA01TN,Negative Symptom Assessment-16 Clinical Classification Test Name,No,Instrument Test Name,HIGH,
C116104,NVTESTCD,Nervous System Findings Test Code,Yes,Instrument Test Code,HIGH,
C116103,NVTEST,Nervous System Findings Test Name,Yes,Instrument Test Name,HIGH,
C103473,NPS01TC,Neuropathic Pain Scale Questionnaire Test Code,No,Instrument Test Code,HIGH,
C103472,NPS01TN,Neuropathic Pain Scale Questionnaire Test Name,No,Instrument Test Name,HIGH,
C100144,NPI1TC,Neuropsychiatric Inventory Questionnaire Test Code,No,Instrument Test Code,HIGH,
C100143,NPI1TN,Neuropsychiatric Inventory Questionnaire Test Name,No,Instrument Test Name,HIGH,
C78738,NCF,Never/Current/Former Classification,No,Clinical Classification,HIGH,
C101839,NYHAC,New York Heart Association Classification,No,Clinical Classification,HIGH,
C115392,NHPT01TC,Nine-Hole Peg Test Functional Test Test Code,No,Instrument Test Code,HIGH,
C115391,NHPT01TN,Nine-Hole Peg Test Functional Test Test Name,No,Instrument Test Name,HIGH,
C66742,NY,No Yes Response,No,Observation Qualifier,HIGH,
C179590,OIPRM,Non-host Organism Identifier Parameters,Yes,Parameter Name-Code,HIGH,
C179591,OIPRMCD,Non-host Organism Identifier Parameters Code,Yes,Parameter Name-Code,HIGH,
C154455,NSCLC1TC,Non-Small Cell Lung Cancer Symptom Assessment Questionnaire v1.0 Questionnaire Test Code,No,Instrument Test Code,HIGH,
C154454,NSCLC1TN,Non-Small Cell Lung Cancer Symptom Assessment Questionnaire v1.0 Questionnaire Test Name,No,Instrument Test Name,HIGH,
C101855,NSYSPCID,Non-system Reason for PCI Delay,No,Clinical Classification,HIGH,
C101834,NORMABNM,Normal Abnormal Response,No,Clinical Classification,HIGH,
C132517,NSAA1TC,North Star Ambulatory Assessment Clinical Classification Test Code,No,Instrument Test Code,HIGH,
C132516,NSAA1TN,North Star Ambulatory Assessment Clinical Classification Test Name,No,Instrument Test Name,HIGH,
C66789,ND,Not Done,No,Observation Qualifier,HIGH,
C213529,NOTGRDRS,Nottingham Histologic Grade Response,No,Clinical Classification,HIGH,
C154685,NTFATSCD,Nutrition Findings About Test Code,Yes,Instrument Test Code,HIGH,
C154686,NTFATS,Nutrition Findings About Test Name,Yes,Instrument Test Name,HIGH,
C127259,OBSSMO,Observational Study Model,Yes,Trial Design,HIGH,
C127260,OBSSSM,Observational Study Sampling Method,Yes,Trial Design,HIGH,
C127261,OBSSTP,Observational Study Time Perspective,Yes,Trial Design,HIGH,
C199495,OGI01TC,Observer Global Impression Generic Modification Version Questionnaire Test Code,No,Instrument Test Code,HIGH,
C199494,OGI01TN,Observer Global Impression Generic Modification Version Questionnaire Test Name,No,Instrument Test Name,HIGH,
C96785,ONCRSR,Oncology Response Assessment Result,Yes,Oncology Assessment,HIGH,
C96782,ONCRTSCD,Oncology Response Assessment Test Code,Yes,Instrument Test Code,HIGH,
C96781,ONCRTS,Oncology Response Assessment Test Name,Yes,Instrument Test Name,HIGH,
C117743,OETESTCD,Ophthalmic Exam Test Code,Yes,Instrument Test Code,HIGH,
C117742,OETEST,Ophthalmic Exam Test Name,Yes,Instrument Test Name,HIGH,
C119013,OEFOCUS,Ophthalmic Focus of Study Specific Interest,No,Observation Qualifier,HIGH,
C150811,OTHEVENT,Other Disposition Event Response,Yes,Disposition,HIGH,
C66768,OUT,Outcome of Event,No,Adverse Event Qualifier,HIGH,
C115394,PASAT1TC,Paced Auditory Serial Addition Test Functional Test Test Code,No,Instrument Test Code,HIGH,
C115393,PASAT1TN,Paced Auditory Serial Addition Test Functional Test Test Name,No,Instrument Test Name,HIGH,
C150772,PTAP1TC,Paced Tapping Functional Test Test Code,No,Instrument Test Code,HIGH,
C150771,PTAP1TN,Paced Tapping Functional Test Test Name,No,Instrument Test Name,HIGH,
C105134,PI01TC,Pain Intensity Questionnaire Test Code,No,Instrument Test Code,HIGH,
C105133,PI01TN,Pain Intensity Questionnaire Test Name,No,Instrument Test Name,HIGH,
C105136,PR01TC,Pain Relief Questionnaire Test Code,No,Instrument Test Code,HIGH,
C105135,PR01TN,Pain Relief Questionnaire Test Name,No,Instrument Test Name,HIGH,
C179592,PAFATSCD,Pancreatic Cancer Findings About Test Code,Yes,Instrument Test Code,HIGH,
C179593,PAFATS,Pancreatic Cancer Findings About Test Name,Yes,Instrument Test Name,HIGH,
C112447,PDDS01TC,Patient Determined Disease Steps Questionnaire Test Code,No,Instrument Test Code,HIGH,
C112446,PDDS01TN,Patient Determined Disease Steps Questionnaire Test Name,No,Instrument Test Name,HIGH,
C135688,PGI01TC,Patient Global Impression Generic Modification Version Questionnaire Test Code,No,Instrument Test Code,HIGH,
C135687,PGI01TN,Patient Global Impression Generic Modification Version Questionnaire Test Name,No,Instrument Test Name,HIGH,
C103483,PHQ02TC,Patient Health Questionnaire - 15 Item Questionnaire Test Code,No,Instrument Test Code,HIGH,
C103482,PHQ02TN,Patient Health Questionnaire - 15 Item Questionnaire Test Name,No,Instrument Test Name,HIGH,
C157727,PHQ04TC,Patient Health Questionnaire - 2 Item Questionnaire Test Code,No,Instrument Test Code,HIGH,
C157726,PHQ04TN,Patient Health Questionnaire - 2 Item Questionnaire Test Name,No,Instrument Test Name,HIGH,
C190940,PHQ05TC,Patient Health Questionnaire - 8 Questionnaire Test Code,No,Instrument Test Code,HIGH,
C190939,PHQ05TN,Patient Health Questionnaire - 8 Questionnaire Test Name,No,Instrument Test Name,HIGH,
C103481,PHQ01TC,Patient Health Questionnaire - 9 Item Questionnaire Test Code,No,Instrument Test Code,HIGH,
C103480,PHQ01TN,Patient Health Questionnaire - 9 Item Questionnaire Test Name,No,Instrument Test Name,HIGH,
C213939,PHQ0101T09OR,Patient Health Questionnaire - 9 Questionnaire ORRES for PHQ0101 Through PHQ0109 TN/TC,No,Instrument Original Result,HIGH,
C213940,PHQ0110OR,Patient Health Questionnaire - 9 Questionnaire ORRES for PHQ0110 TN/TC,No,Instrument Original Result,HIGH,
C213941,PHQ0101T09STR,Patient Health Questionnaire - 9 Questionnaire STRESC for PHQ0101 Through PHQ0109 TN/TC,No,Instrument Standardized Result,HIGH,
C213942,PHQ0110STR,Patient Health Questionnaire - 9 Questionnaire STRESC for PHQ0110 TN/TC,No,Instrument Standardized Result,HIGH,
C125749,PHQ03TC,Patient Health Questionnaire Screener Version Questionnaire Test Code,No,Instrument Test Code,HIGH,
C125748,PHQ03TN,Patient Health Questionnaire Screener Version Questionnaire Test Name,No,Instrument Test Name,HIGH,
C179942,PT01TC,Patient-Reported Outcomes Version of the Common Terminology Criteria for Adverse Events Item Library Version 1.0 Questionnaire Test Code,No,Instrument Test Code,HIGH,
C179941,PT01TN,Patient-Reported Outcomes Version of the Common Terminology Criteria for Adverse Events Item Library Version 1.0 Questionnaire Test Name,No,Instrument Test Name,HIGH,
C190865,PDFATSCD,Pediatric Findings About Test Code,Yes,Instrument Test Code,HIGH,
C190864,PDFATS,Pediatric Findings About Test Name,Yes,Instrument Test Name,HIGH,
C147546,FAC099TC,Pediatric Functional Assessment of Chronic Illness Therapy-Fatigue Questionnaire Test Code,No,Instrument Test Code,HIGH,
C147545,FAC099TN,Pediatric Functional Assessment of Chronic Illness Therapy-Fatigue Questionnaire Test Name,No,Instrument Test Name,HIGH,
C135696,PODCI2TC,"Pediatric Outcomes Data Collection Instrument, Adolescent Parent-Reported Version Questionnaire Test Code",No,Instrument Test Code,HIGH,
C135695,PODCI2TN,"Pediatric Outcomes Data Collection Instrument, Adolescent Parent-Reported Version Questionnaire Test Name",No,Instrument Test Name,HIGH,
C135698,PODCI3TC,"Pediatric Outcomes Data Collection Instrument, Adolescent Self-Reported Version Questionnaire Test Code",No,Instrument Test Code,HIGH,
C135697,PODCI3TN,"Pediatric Outcomes Data Collection Instrument, Adolescent Self-Reported Version Questionnaire Test Name",No,Instrument Test Name,HIGH,
C135694,PODCI1TC,"Pediatric Outcomes Data Collection Instrument, Pediatric Parent-Reported Version Questionnaire Test Code",No,Instrument Test Code,HIGH,
C135693,PODCI1TN,"Pediatric Outcomes Data Collection Instrument, Pediatric Parent-Reported Version Questionnaire Test Name",No,Instrument Test Name,HIGH,
C138231,PQL15TC,Pediatric Quality of Life Neuromuscular Module Acute Version 3 Child Parent Report Questionnaire Test Code,No,Instrument Test Code,HIGH,
C138230,PQL15TN,Pediatric Quality of Life Neuromuscular Module Acute Version 3 Child Parent Report Questionnaire Test Name,No,Instrument Test Name,HIGH,
C138227,PQL14TC,Pediatric Quality of Life Neuromuscular Module Acute Version 3 Child Questionnaire Test Code,No,Instrument Test Code,HIGH,
C138226,PQL14TN,Pediatric Quality of Life Neuromuscular Module Acute Version 3 Child Questionnaire Test Name,No,Instrument Test Name,HIGH,
C138233,PQL13TC,Pediatric Quality of Life Neuromuscular Module Acute Version 3 Teen Parent Report Questionnaire Test Code,No,Instrument Test Code,HIGH,
C138232,PQL13TN,Pediatric Quality of Life Neuromuscular Module Acute Version 3 Teen Parent Report Questionnaire Test Name,No,Instrument Test Name,HIGH,
C138239,PQL12TC,Pediatric Quality of Life Neuromuscular Module Acute Version 3 Teen Questionnaire Test Code,No,Instrument Test Code,HIGH,
C138238,PQL12TN,Pediatric Quality of Life Neuromuscular Module Acute Version 3 Teen Questionnaire Test Name,No,Instrument Test Name,HIGH,
C138229,PQL18TC,Pediatric Quality of Life Neuromuscular Module Acute Version 3 Toddler Parent Report Questionnaire Test Code,No,Instrument Test Code,HIGH,
C138228,PQL18TN,Pediatric Quality of Life Neuromuscular Module Acute Version 3 Toddler Parent Report Questionnaire Test Name,No,Instrument Test Name,HIGH,
C138235,PQL11TC,Pediatric Quality of Life Neuromuscular Module Acute Version 3 Young Adult Parent Report Questionnaire Test Code,No,Instrument Test Code,HIGH,
C138234,PQL11TN,Pediatric Quality of Life Neuromuscular Module Acute Version 3 Young Adult Parent Report Questionnaire Test Name,No,Instrument Test Name,HIGH,
C138241,PQL10TC,Pediatric Quality of Life Neuromuscular Module Acute Version 3 Young Adult Questionnaire Test Code,No,Instrument Test Code,HIGH,
C138240,PQL10TN,Pediatric Quality of Life Neuromuscular Module Acute Version 3 Young Adult Questionnaire Test Name,No,Instrument Test Name,HIGH,
C138237,PQL17TC,Pediatric Quality of Life Neuromuscular Module Acute Version 3 Young Child Parent Report Questionnaire Test Code,No,Instrument Test Code,HIGH,
C138236,PQL17TN,Pediatric Quality of Life Neuromuscular Module Acute Version 3 Young Child Parent Report Questionnaire Test Name,No,Instrument Test Name,HIGH,
C138243,PQL16TC,Pediatric Quality of Life Neuromuscular Module Acute Version 3 Young Child Questionnaire Test Code,No,Instrument Test Code,HIGH,
C138242,PQL16TN,Pediatric Quality of Life Neuromuscular Module Acute Version 3 Young Child Questionnaire Test Name,No,Instrument Test Name,HIGH,
C138249,PQL06TC,Pediatric Quality of Life Neuromuscular Module Version 3 Child Parent Report Questionnaire Test Code,No,Instrument Test Code,HIGH,
C138248,PQL06TN,Pediatric Quality of Life Neuromuscular Module Version 3 Child Parent Report Questionnaire Test Name,No,Instrument Test Name,HIGH,
C138245,PQL05TC,Pediatric Quality of Life Neuromuscular Module Version 3 Child Questionnaire Test Code,No,Instrument Test Code,HIGH,
C138244,PQL05TN,Pediatric Quality of Life Neuromuscular Module Version 3 Child Questionnaire Test Name,No,Instrument Test Name,HIGH,
C138251,PQL04TC,Pediatric Quality of Life Neuromuscular Module Version 3 Teen Parent Report Questionnaire Test Code,No,Instrument Test Code,HIGH,
C138250,PQL04TN,Pediatric Quality of Life Neuromuscular Module Version 3 Teen Parent Report Questionnaire Test Name,No,Instrument Test Name,HIGH,
C138257,PQL03TC,Pediatric Quality of Life Neuromuscular Module Version 3 Teen Questionnaire Test Code,No,Instrument Test Code,HIGH,
C138256,PQL03TN,Pediatric Quality of Life Neuromuscular Module Version 3 Teen Questionnaire Test Name,No,Instrument Test Name,HIGH,
C138247,PQL09TC,Pediatric Quality of Life Neuromuscular Module Version 3 Toddler Parent Report Questionnaire Test Code,No,Instrument Test Code,HIGH,
C138246,PQL09TN,Pediatric Quality of Life Neuromuscular Module Version 3 Toddler Parent Report Questionnaire Test Name,No,Instrument Test Name,HIGH,
C138253,PQL02TC,Pediatric Quality of Life Neuromuscular Module Version 3 Young Adult Parent Report Questionnaire Test Code,No,Instrument Test Code,HIGH,
C138252,PQL02TN,Pediatric Quality of Life Neuromuscular Module Version 3 Young Adult Parent Report Questionnaire Test Name,No,Instrument Test Name,HIGH,
C138259,PQL01TC,Pediatric Quality of Life Neuromuscular Module Version 3 Young Adult Questionnaire Test Code,No,Instrument Test Code,HIGH,
C138258,PQL01TN,Pediatric Quality of Life Neuromuscular Module Version 3 Young Adult Questionnaire Test Name,No,Instrument Test Name,HIGH,
C138255,PQL08TC,Pediatric Quality of Life Neuromuscular Module Version 3 Young Child Parent Report Questionnaire Test Code,No,Instrument Test Code,HIGH,
C138254,PQL08TN,Pediatric Quality of Life Neuromuscular Module Version 3 Young Child Parent Report Questionnaire Test Name,No,Instrument Test Name,HIGH,
C138261,PQL07TC,Pediatric Quality of Life Neuromuscular Module Version 3 Young Child Questionnaire Test Code,No,Instrument Test Code,HIGH,
C138260,PQL07TN,Pediatric Quality of Life Neuromuscular Module Version 3 Young Child Questionnaire Test Name,No,Instrument Test Name,HIGH,
C204222,PSECD1TC,Penn State Electronic Cigarette Dependence Index Questionnaire Test Code,No,Instrument Test Code,HIGH,
C204221,PSECD1TN,Penn State Electronic Cigarette Dependence Index Questionnaire Test Name,No,Instrument Test Name,HIGH,
C138217,PUL01TC,Performance of the Upper Limb Module for DMD Version 1.2 Functional Test Test Code,No,Instrument Test Code,HIGH,
C138216,PUL01TN,Performance of the Upper Limb Module for DMD Version 1.2 Functional Test Test Name,No,Instrument Test Name,HIGH,
C138219,PUL02TC,Performance of the Upper Limb Module for DMD Version 2.0 Functional Test Test Code,No,Instrument Test Code,HIGH,
C138218,PUL02TN,Performance of the Upper Limb Module for DMD Version 2.0 Functional Test Test Name,No,Instrument Test Name,HIGH,
C204220,PDAI01TC,Perianal Crohn's Disease Activity Index Questionnaire Test Code,No,Instrument Test Code,HIGH,
C204219,PDAI01TN,Perianal Crohn's Disease Activity Index Questionnaire Test Name,No,Instrument Test Name,HIGH,
C95121,PHSPRPCD,Physical Properties Test Code,Yes,Instrument Test Code,HIGH,
C95120,PHSPRP,Physical Properties Test Name,Yes,Instrument Test Name,HIGH,
C172330,PKANMET,PK Analytical Method,Yes,Method,HIGH,
C85493,PKPARM,PK Parameters,Yes,Parameter Name-Code,HIGH,
C85839,PKPARMCD,PK Parameters Code,Yes,Parameter Name-Code,HIGH,
C85494,PKUNIT,PK Units of Measure,Yes,Unit of Measure,HIGH,
C128685,PKUDMG,PK Units of Measure - Dose mg,Yes,Unit of Measure,HIGH,
C128686,PKUDUG,PK Units of Measure - Dose ug,Yes,Unit of Measure,HIGH,
C128684,PKUWG,PK Units of Measure - Weight g,Yes,Unit of Measure,HIGH,
C128683,PKUWKG,PK Units of Measure - Weight kg,Yes,Unit of Measure,HIGH,
C99075,PORTOT,Portion/Totality,Yes,Anatomical Qualifier,HIGH,
C71148,POSITION,Position,Yes,Anatomical Qualifier,HIGH,
C124686,PANSS1TC,Positive and Negative Syndrome Scale Clinical Classification Test Code,No,Instrument Test Code,HIGH,
C124685,PANSS1TN,Positive and Negative Syndrome Scale Clinical Classification Test Name,No,Instrument Test Name,HIGH,
C102582,PRITBCON,Priority of Tuberculosis Contact,Yes,Role/Relationship,HIGH,
C101858,PROCEDUR,Procedure,Yes,Treatment Qualifier,HIGH,
C101856,PRURGNCY,Procedure Urgency Status,No,Disposition,HIGH,
C202144,PA136TC,PROMIS Item Bank v1.0 - Fatigue - Short Form 7a Questionnaire Test Code,No,Instrument Test Code,HIGH,
C202143,PA136TN,PROMIS Item Bank v1.0 - Fatigue - Short Form 7a Questionnaire Test Name,No,Instrument Test Name,HIGH,
C208376,PA215TC,PROMIS Item Bank v1.0 - Sleep Disturbance - Short Form 4a Questionnaire Test Code,No,Instrument Test Code,HIGH,
C208375,PA215TN,PROMIS Item Bank v1.0 - Sleep Disturbance - Short Form 4a Questionnaire Test Name,No,Instrument Test Name,HIGH,
C208374,PA020TC,PROMIS Item Bank v2.0 - Cognitive Function - Abilities Subset - Short Form 6a Questionnaire Test Code,No,Instrument Test Code,HIGH,
C208373,PA020TN,PROMIS Item Bank v2.0 - Cognitive Function - Abilities Subset - Short Form 6a Questionnaire Test Name,No,Instrument Test Name,HIGH,
C202142,PA016TC,PROMIS Item Bank v2.0 - Cognitive Function - Short Form 6a Questionnaire Test Code,No,Instrument Test Code,HIGH,
C202141,PA016TN,PROMIS Item Bank v2.0 - Cognitive Function - Short Form 6a Questionnaire Test Name,No,Instrument Test Name,HIGH,
C208378,PA261TC,PROMIS-29 Profile v2.1 Questionnaire Test Code,No,Instrument Test Code,HIGH,
C208377,PA261TN,PROMIS-29 Profile v2.1 Questionnaire Test Name,No,Instrument Test Name,HIGH,
C114118,PROTMLST,Protocol Milestone,Yes,Trial Design,HIGH,
C101848,RSKASMT,Protocol Risk Assessment Response,No,Trial Design,HIGH,
C190938,PASI05TC,Psoriasis Area and Severity Index Version Bozek Clinical Classification Test Code,No,Instrument Test Code,HIGH,
C190937,PASI05TN,Psoriasis Area and Severity Index Version Bozek Clinical Classification Test Name,No,Instrument Test Name,HIGH,
C190936,PASI04TC,Psoriasis Area and Severity Index Version EMA Clinical Classification Test Code,No,Instrument Test Code,HIGH,
C190935,PASI04TN,Psoriasis Area and Severity Index Version EMA Clinical Classification Test Name,No,Instrument Test Name,HIGH,
C179936,PASI02TC,Psoriasis Area and Severity Index Version Feldman Clinical Classification Test Code,No,Instrument Test Code,HIGH,
C179935,PASI02TN,Psoriasis Area and Severity Index Version Feldman Clinical Classification Test Name,No,Instrument Test Name,HIGH,
C190934,PASI03TC,Psoriasis Area and Severity Index Version Fredriksson Clinical Classification Test Code,No,Instrument Test Code,HIGH,
C190933,PASI03TN,Psoriasis Area and Severity Index Version Fredriksson Clinical Classification Test Name,No,Instrument Test Name,HIGH,
C170447,PSFATSCD,Psoriasis Findings About Test Code,Yes,Instrument Test Code,HIGH,
C170446,PSFATS,Psoriasis Findings About Test Name,Yes,Instrument Test Name,HIGH,
C158113,QRSMTHOD,QRS Method,Yes,Method,HIGH,
C130267,QLES2TC,Quality Of Life Enjoyment And Satisfaction Questionnaire - Short Form Test Code,No,Instrument Test Code,HIGH,
C130266,QLES2TN,Quality Of Life Enjoyment And Satisfaction Questionnaire - Short Form Test Name,No,Instrument Test Name,HIGH,
C130265,QLES1TC,Quality Of Life Enjoyment And Satisfaction Questionnaire Test Code,No,Instrument Test Code,HIGH,
C130264,QLES1TN,Quality Of Life Enjoyment And Satisfaction Questionnaire Test Name,No,Instrument Test Name,HIGH,
C174052,IBDQ01TC,Quality of Life in Inflammatory Bowel Disease Questionnaire Test Code,No,Instrument Test Code,HIGH,
C174051,IBDQ01TN,Quality of Life in Inflammatory Bowel Disease Questionnaire Test Name,No,Instrument Test Name,HIGH,
C199497,QSUB01TC,Questionnaire on Smoking Urges-Brief Test Code,No,Instrument Test Code,HIGH,
C199496,QSUB01TN,Questionnaire on Smoking Urges-Brief Test Name,No,Instrument Test Name,HIGH,
C130249,QIDSC1TC,Quick Inventory of Depressive Symptomatology Clinician-Rated Version Clinical Classification Test Code,No,Instrument Test Code,HIGH,
C130248,QIDSC1TN,Quick Inventory of Depressive Symptomatology Clinician-Rated Version Clinical Classification Test Name,No,Instrument Test Name,HIGH,
C130263,QIDSR1TC,Quick Inventory of Depressive Symptomatology Self-Report Version Questionnaire Test Code,No,Instrument Test Code,HIGH,
C130262,QIDSR1TN,Quick Inventory of Depressive Symptomatology Self-Report Version Questionnaire Test Name,No,Instrument Test Name,HIGH,
C74457,RACE,Race,No,Demographic,HIGH,
C128689,RACEC,Race As Collected,Yes,Demographic,HIGH,
C113862,R3601TC,RAND 36-Item Health Survey 1.0 Questionnaire Test Code,No,Instrument Test Code,HIGH,
C113861,R3601TN,RAND 36-Item Health Survey 1.0 Questionnaire Test Name,No,Instrument Test Name,HIGH,
C135700,RSSS01TC,RAND Social Support Survey Instrument Questionnaire Test Code,No,Instrument Test Code,HIGH,
C135699,RSSS01TN,RAND Social Support Survey Instrument Questionnaire Test Name,No,Instrument Test Name,HIGH,
C101864,CSLVLNIM,Reason CS/LV Lead Not Implanted,No,Clinical Classification,HIGH,
C102584,REASTRT,Reason For Treatment,Yes,Treatment Qualifier,HIGH,
C102583,REASTINT,Reason for Treatment Interruption,Yes,Treatment Qualifier,HIGH,
C78736,NRIND,Reference Range Indicator,Yes,Observation Qualifier,HIGH,
C66728,STENRF,Relation to Reference Period,No,Observation Qualifier,HIGH,
C100130,RELSUB,Relationship to Subject,Yes,Role/Relationship,HIGH,
C78737,RELTYPE,Relationship Type,No,Role/Relationship,HIGH,
C106479,RPTESTCD,Reproductive System Findings Test Code,Yes,Instrument Test Code,HIGH,
C106478,RPTEST,Reproductive System Findings Test Name,Yes,Instrument Test Name,HIGH,
C111106,RETESTCD,Respiratory Test Code,Yes,Instrument Test Code,HIGH,
C111107,RETEST,Respiratory Test Name,Yes,Instrument Test Name,HIGH,
C177910,RSLSCLRS,Result Scale Response,Yes,Observation Qualifier,HIGH,
C179588,RESTYPRS,Result Type Response,Yes,Observation Qualifier,HIGH,
C103465,FIQR01TC,Revised Fibromyalgia Impact Questionnaire Questionnaire Test Code,No,Instrument Test Code,HIGH,
C103464,FIQR01TN,Revised Fibromyalgia Impact Questionnaire Questionnaire Test Name,No,Instrument Test Name,HIGH,
C123655,AVL02TC,Rey Auditory Verbal Learning Test Functional Test Test Code,No,Instrument Test Code,HIGH,
C123654,AVL02TN,Rey Auditory Verbal Learning Test Functional Test Test Name,No,Instrument Test Name,HIGH,
C124672,RCVD01TC,Reynolds Cardiovascular Disease 10-Year Risk Score Clinical Classification Test Code,No,Instrument Test Code,HIGH,
C124671,RCVD01TN,Reynolds Cardiovascular Disease 10-Year Risk Score Clinical Classification Test Name,No,Instrument Test Name,HIGH,
C171409,RASS01TC,Richmond Agitation-Sedation Scale Clinical Classification Test Code,No,Instrument Test Code,HIGH,
C171408,RASS01TN,Richmond Agitation-Sedation Scale Clinical Classification Test Name,No,Instrument Test Name,HIGH,
C171413,SAS01TC,Riker Sedation-Agitation Scale Clinical Classification Test Code,No,Instrument Test Code,HIGH,
C171412,SAS01TN,Riker Sedation-Agitation Scale Clinical Classification Test Name,No,Instrument Test Name,HIGH,
C141659,RISEF1TC,Rising From Floor Functional Test Test Code,No,Instrument Test Code,HIGH,
C141658,RISEF1TN,Rising From Floor Functional Test Test Name,No,Instrument Test Name,HIGH,
C119072,RPQ01TC,Rivermead Post Concussion Symptoms Questionnaire Questionnaire Test Code,No,Instrument Test Code,HIGH,
C119071,RPQ01TN,Rivermead Post Concussion Symptoms Questionnaire Questionnaire Test Name,No,Instrument Test Name,HIGH,
C166190,ROCK01TC,Rockport One Mile Walk Test Version 1.0 Functional Test Test Code,No,Instrument Test Code,HIGH,
C166189,ROCK01TN,Rockport One Mile Walk Test Version 1.0 Functional Test Test Name,No,Instrument Test Name,HIGH,
C100166,RDQ01TC,Roland Morris Disability Questionnaire Questionnaire Test Code,No,Instrument Test Code,HIGH,
C100165,RDQ01TN,Roland Morris Disability Questionnaire Questionnaire Test Name,No,Instrument Test Name,HIGH,
C66729,ROUTE,Route of Administration Response,Yes,Treatment Qualifier,HIGH,
C190903,RUTG0101OR,Rutgeerts Score Clinical Classification ORRES for RUTG0101 TN/TC,No,Instrument Original Result,HIGH,
C190904,RUTG0101STR,Rutgeerts Score Clinical Classification STRESC for RUTG0101 TN/TC,No,Instrument Standardized Result,HIGH,
C190932,RUTG01TC,Rutgeerts Score Clinical Classification Test Code,No,Instrument Test Code,HIGH,
C190931,RUTG01TN,Rutgeerts Score Clinical Classification Test Name,No,Instrument Test Name,HIGH,
C115408,SWLS01TC,Satisfaction With Life Scale Questionnaire Test Code,No,Instrument Test Code,HIGH,
C115407,SWLS01TN,Satisfaction With Life Scale Questionnaire Test Name,No,Instrument Test Name,HIGH,
C124302,SZFATSCD,Schizophrenia Findings About Test Code,Yes,Instrument Test Code,HIGH,
C124303,SZFATS,Schizophrenia Findings About Test Name,Yes,Instrument Test Name,HIGH,
C100160,SOAPR1TC,Screener and Opioid Assessment for Patients with Pain - Revised Questionnaire Test Code,No,Instrument Test Code,HIGH,
C100159,SOAPR1TN,Screener and Opioid Assessment for Patients with Pain - Revised Questionnaire Test Name,No,Instrument Test Name,HIGH,
C116108,DTHDXCD,SDTM Death Diagnosis and Details Test Code,Yes,Instrument Test Code,HIGH,
C116107,DTHDX,SDTM Death Diagnosis and Details Test Name,Yes,Instrument Test Name,HIGH,
C66734,DOMAIN,SDTM Domain Abbreviation,Yes,Trial Design,HIGH,
C132263,MITSCD,SDTM Microscopic Findings Test Code,Yes,Instrument Test Code,HIGH,
C132262,MITS,SDTM Microscopic Findings Test Name,Yes,Instrument Test Name,HIGH,
C160923,SDTMVRS,SDTM Version Response,Yes,Trial Design,HIGH,
C189266,SDTMDVRS,SDTMIG Medical Device Version Response,Yes,Trial Design,HIGH,
C160924,SDTMIGRS,SDTMIG Version Response,Yes,Trial Design,HIGH,
C204225,SOFA0101OR,Sepsis-related Organ Failure Assessment 27MAR2024 Clinical Classification ORRES for SOFA0101 TN/TC,No,Instrument Original Result,HIGH,
C204227,SOFA0102OR,Sepsis-related Organ Failure Assessment 27MAR2024 Clinical Classification ORRES for SOFA0102 TN/TC,No,Instrument Original Result,HIGH,
C204229,SOFA0103OR,Sepsis-related Organ Failure Assessment 27MAR2024 Clinical Classification ORRES for SOFA0103 TN/TC,No,Instrument Original Result,HIGH,
C204231,SOFA0104OR,Sepsis-related Organ Failure Assessment 27MAR2024 Clinical Classification ORRES for SOFA0104 TN/TC,No,Instrument Original Result,HIGH,
C204233,SOFA0105OR,Sepsis-related Organ Failure Assessment 27MAR2024 Clinical Classification ORRES for SOFA0105 TN/TC,No,Instrument Original Result,HIGH,
C204235,SOFA0106OR,Sepsis-related Organ Failure Assessment 27MAR2024 Clinical Classification ORRES for SOFA0106 TN/TC,No,Instrument Original Result,HIGH,
C204226,SOFA0101STR,Sepsis-related Organ Failure Assessment 27MAR2024 Clinical Classification STRESC for SOFA0101 TN/TC,No,Instrument Standardized Result,HIGH,
C204228,SOFA0102STR,Sepsis-related Organ Failure Assessment 27MAR2024 Clinical Classification STRESC for SOFA0102 TN/TC,No,Instrument Standardized Result,HIGH,
C204230,SOFA0103STR,Sepsis-related Organ Failure Assessment 27MAR2024 Clinical Classification STRESC for SOFA0103 TN/TC,No,Instrument Standardized Result,HIGH,
C204232,SOFA0104STR,Sepsis-related Organ Failure Assessment 27MAR2024 Clinical Classification STRESC for SOFA0104 TN/TC,No,Instrument Standardized Result,HIGH,
C204234,SOFA0105STR,Sepsis-related Organ Failure Assessment 27MAR2024 Clinical Classification STRESC for SOFA0105 TN/TC,No,Instrument Standardized Result,HIGH,
C204236,SOFA0106STR,Sepsis-related Organ Failure Assessment 27MAR2024 Clinical Classification STRESC for SOFA0106 TN/TC,No,Instrument Standardized Result,HIGH,
C204224,SOFA01TC,Sepsis-related Organ Failure Assessment 27MAR2024 Clinical Classification Test Code,No,Instrument Test Code,HIGH,
C204223,SOFA01TN,Sepsis-related Organ Failure Assessment 27MAR2024 Clinical Classification Test Name,No,Instrument Test Name,HIGH,
C165643,SEVRS,Severity Response,Yes,Observation Qualifier,HIGH,
C66769,AESEV,Severity/Intensity Scale for Adverse Events,No,Adverse Event Qualifier,HIGH,
C66731,SEX,Sex,No,Demographic,HIGH,
C209287,SEXABRTH,Sex Assigned At Birth Response,Yes,Demographic,HIGH,
C66732,SEXPOP,Sex of Participants Response,No,Trial Design,HIGH,
C209290,SEXORIRS,Sexual Orientation Response,Yes,Demographic,HIGH,
C185740,SF6D2TC,"SF-6Dv2 Health Utility Survey Acute, English Version 2.0 Questionnaire Test Code",No,Instrument Test Code,HIGH,
C185739,SF6D2TN,"SF-6Dv2 Health Utility Survey Acute, English Version 2.0 Questionnaire Test Name",No,Instrument Test Name,HIGH,
C185742,SF6D1TC,"SF-6Dv2 Health Utility Survey Standard, English Version 2.0 Questionnaire Test Code",No,Instrument Test Code,HIGH,
C185741,SF6D1TN,"SF-6Dv2 Health Utility Survey Standard, English Version 2.0 Questionnaire Test Name",No,Instrument Test Name,HIGH,
C111350,SDS01TC,Sheehan Disability Scale Questionnaire Test Code,No,Instrument Test Code,HIGH,
C111349,SDS01TN,Sheehan Disability Scale Questionnaire Test Name,No,Instrument Test Name,HIGH,
C177710,SF102TC,"Short Form 10 Health Survey for Children Acute, US Version 1.0 Questionnaire Test Code",No,Instrument Test Code,HIGH,
C177709,SF102TN,"Short Form 10 Health Survey for Children Acute, US Version 1.0 Questionnaire Test Name",No,Instrument Test Name,HIGH,
C177712,SF101TC,"Short Form 10 Health Survey for Children Standard, US Version 1.0 Questionnaire Test Code",No,Instrument Test Code,HIGH,
C177711,SF101TN,"Short Form 10 Health Survey for Children Standard, US Version 1.0 Questionnaire Test Name",No,Instrument Test Name,HIGH,
C177714,SF122TC,"Short Form 12 Health Survey Acute, US Version 1.0 Questionnaire Test Code",No,Instrument Test Code,HIGH,
C177713,SF122TN,"Short Form 12 Health Survey Acute, US Version 1.0 Questionnaire Test Name",No,Instrument Test Name,HIGH,
C177718,SF124TC,"Short Form 12 Health Survey Acute, US Version 2.0 Questionnaire Test Code",No,Instrument Test Code,HIGH,
C177717,SF124TN,"Short Form 12 Health Survey Acute, US Version 2.0 Questionnaire Test Name",No,Instrument Test Name,HIGH,
C177716,SF121TC,"Short Form 12 Health Survey Standard, US Version 1.0 Questionnaire Test Code",No,Instrument Test Code,HIGH,
C177715,SF121TN,"Short Form 12 Health Survey Standard, US Version 1.0 Questionnaire Test Name",No,Instrument Test Name,HIGH,
C177720,SF123TC,"Short Form 12 Health Survey Standard, US Version 2.0 Questionnaire Test Code",No,Instrument Test Code,HIGH,
C177719,SF123TN,"Short Form 12 Health Survey Standard, US Version 2.0 Questionnaire Test Name",No,Instrument Test Name,HIGH,
C177706,SF82TC,"Short Form 8 Health Survey Acute, US Version 1.0 Questionnaire Test Code",No,Instrument Test Code,HIGH,
C177705,SF82TN,"Short Form 8 Health Survey Acute, US Version 1.0 Questionnaire Test Name",No,Instrument Test Name,HIGH,
C177708,SF81TC,"Short Form 8 Health Survey Standard, US Version 1.0 Questionnaire Test Code",No,Instrument Test Code,HIGH,
C177707,SF81TN,"Short Form 8 Health Survey Standard, US Version 1.0 Questionnaire Test Name",No,Instrument Test Name,HIGH,
C170527,SPPB1TC,Short Physical Performance Battery Version 1.2 Functional Test Test Code,No,Instrument Test Code,HIGH,
C170526,SPPB1TN,Short Physical Performance Battery Version 1.2 Functional Test Test Name,No,Instrument Test Name,HIGH,
C100156,SFMP2TC,Short-Form McGill Pain Questionnaire-2 Questionnaire Test Code,No,Instrument Test Code,HIGH,
C100155,SFMP2TN,Short-Form McGill Pain Questionnaire-2 Questionnaire Test Name,No,Instrument Test Name,HIGH,
C176051,SES01TC,Simple Endoscopic Score for Crohn's Disease Version 1 Clinical Classification Test Code,No,Instrument Test Code,HIGH,
C176050,SES01TN,Simple Endoscopic Score for Crohn's Disease Version 1 Clinical Classification Test Name,No,Instrument Test Name,HIGH,
C66733,SIZE,Size Response,Yes,Observation Qualifier,HIGH,
C112024,SRTESTCD,Skin Response Test Code,Yes,Instrument Test Code,HIGH,
C112023,SRTEST,Skin Response Test Name,Yes,Instrument Test Name,HIGH,
C74561,SKINTYP,Skin Type Response,Yes,Observation Qualifier,HIGH,
C102587,RISKSOC,Social Risk Factor,Yes,Demographic,HIGH,
C132314,CLMETH,Specimen Collection Method,Yes,Method,HIGH,
C78733,SPECCOND,Specimen Condition,Yes,Specimen,HIGH,
C78734,SPECTYPE,Specimen Type,Yes,Specimen,HIGH,
C106671,SGRQC1TC,St. George's Respiratory Questionnaire for COPD Patients Questionnaire Test Code,No,Instrument Test Code,HIGH,
C106670,SGRQC1TN,St. George's Respiratory Questionnaire for COPD Patients Questionnaire Test Name,No,Instrument Test Name,HIGH,
C112449,SGRQ01TC,St. George's Respiratory Questionnaire Past 3 Months Version Questionnaire Test Code,No,Instrument Test Code,HIGH,
C112448,SGRQ01TN,St. George's Respiratory Questionnaire Past 3 Months Version Questionnaire Test Name,No,Instrument Test Name,HIGH,
C112451,SGRQ02TC,St. George's Respiratory Questionnaire Past 4 Weeks Version Questionnaire Test Code,No,Instrument Test Code,HIGH,
C112450,SGRQ02TN,St. George's Respiratory Questionnaire Past 4 Weeks Version Questionnaire Test Name,No,Instrument Test Name,HIGH,
C187462,SSS0101OR,Stanford Sleepiness Scale Questionnaire ORRES for SSS0101 TN/TC,No,Instrument Original Result,HIGH,
C187463,SSS0101STR,Stanford Sleepiness Scale Questionnaire STRESC for SSS0101 TN/TC,No,Instrument Standardized Result,HIGH,
C187454,SSS01TC,Stanford Sleepiness Scale Questionnaire Test Code,No,Instrument Test Code,HIGH,
C187453,SSS01TN,Stanford Sleepiness Scale Questionnaire Test Name,No,Instrument Test Name,HIGH,
C119080,STCG01TC,Stent Thrombosis Coronary ARC Grade Clinical Classification Test Code,No,Instrument Test Code,HIGH,
C119079,STCG01TN,Stent Thrombosis Coronary ARC Grade Clinical Classification Test Name,No,Instrument Test Name,HIGH,
C119020,STCARCRS,"Stent Thrombosis, Coronary ARC Grade Responses",No,Clinical Classification,HIGH,
C119019,STCTIMRS,"Stent Thrombosis, Coronary, ARC Timing Responses",No,Clinical Classification,HIGH,
C99077,STYPE,Study Type Response,No,Trial Design,HIGH,
C170443,DSSCAT,Subcategory for Disposition Event,Yes,Domain Category,HIGH,
C74559,SCTESTCD,Subject Characteristic Test Code,Yes,Instrument Test Code,HIGH,
C103330,SCTEST,Subject Characteristic Test Name,Yes,Instrument Test Name,HIGH,
C124304,SSTATRS,Subject Status Response,Yes,Disposition,HIGH,
C124305,SSTESTCD,Subject Status Test Code,Yes,Instrument Test Code,HIGH,
C124306,SSTEST,Subject Status Test Name,Yes,Instrument Test Name,HIGH,
C101828,SOWSA1TC,Subjective Opiate Withdrawal Scale Questionnaire Test Code,No,Instrument Test Code,HIGH,
C101829,SOWSA1TN,Subjective Opiate Withdrawal Scale Questionnaire Test Name,No,Instrument Test Name,HIGH,
C101852,SDTHSDTP,Sudden Death Syndrome Type,No,Clinical Classification,HIGH,
C150790,SIQ01TC,Suicidal Ideation Questionnaire Test Code,No,Instrument Test Code,HIGH,
C150789,SIQ01TN,Suicidal Ideation Questionnaire Test Name,No,Instrument Test Name,HIGH,
C150792,SIQ02TC,Suicidal Ideation Questionnaire-JR Questionnaire Test Code,No,Instrument Test Code,HIGH,
C150791,SIQ02TN,Suicidal Ideation Questionnaire-JR Questionnaire Test Name,No,Instrument Test Name,HIGH,
C102579,EVDRETRT,Supporting Evidence for Re-Treatment,Yes,Treatment Qualifier,HIGH,
C115396,SDMT01TC,Symbol Digit Modalities Test Functional Test Test Code,No,Instrument Test Code,HIGH,
C115395,SDMT01TN,Symbol Digit Modalities Test Functional Test Test Name,No,Instrument Test Name,HIGH,
C103485,SIQR01TC,Symptom Impact Questionnaire Questionnaire Test Code,No,Instrument Test Code,HIGH,
C103484,SIQR01TN,Symptom Impact Questionnaire Questionnaire Test Name,No,Instrument Test Name,HIGH,
C154457,SMDDS1TC,Symptoms of Major Depressive Disorder Scale v1.0 Questionnaire Test Code,No,Instrument Test Code,HIGH,
C154456,SMDDS1TN,Symptoms of Major Depressive Disorder Scale v1.0 Questionnaire Test Name,No,Instrument Test Name,HIGH,
C193261,TANN0201OR,Tanner Scale Boy Clinical Classification ORRES for TANN0201 TN/TC,No,Instrument Original Result,HIGH,
C193263,TANN0202OR,Tanner Scale Boy Clinical Classification ORRES for TANN0202 TN/TC,No,Instrument Original Result,HIGH,
C193262,TANN0201STR,Tanner Scale Boy Clinical Classification STRESC for TANN0201 TN/TC,No,Instrument Standardized Result,HIGH,
C193264,TANN0202STR,Tanner Scale Boy Clinical Classification STRESC for TANN0202 TN/TC,No,Instrument Standardized Result,HIGH,
C124662,TANN02TC,Tanner Scale Boy Clinical Classification Test Code,No,Instrument Test Code,HIGH,
C124661,TANN02TN,Tanner Scale Boy Clinical Classification Test Name,No,Instrument Test Name,HIGH,
C193257,TANN0101OR,Tanner Scale Girl Clinical Classification ORRES for TANN0101 TN/TC,No,Instrument Original Result,HIGH,
C193259,TANN0102OR,Tanner Scale Girl Clinical Classification ORRES for TANN0102 TN/TC,No,Instrument Original Result,HIGH,
C193258,TANN0101STR,Tanner Scale Girl Clinical Classification STRESC for TANN0101 TN/TC,No,Instrument Standardized Result,HIGH,
C193260,TANN0102STR,Tanner Scale Girl Clinical Classification STRESC for TANN0102 TN/TC,No,Instrument Standardized Result,HIGH,
C124664,TANN01TC,Tanner Scale Girl Clinical Classification Test Code,No,Instrument Test Code,HIGH,
C124663,TANN01TN,Tanner Scale Girl Clinical Classification Test Name,No,Instrument Test Name,HIGH,
C181175,TESTCOND,Test Condition Response,Yes,Observation Qualifier,HIGH,
C179589,TSTMTHSN,Test Method Sensitivity,Yes,Method,HIGH,
C181170,TSTOPOBJ,Test Operational Objective,No,Trial Design,HIGH,
C120987,BODE01TC,"The Body-Mass Index, Airflow Obstruction, Dyspnea, and Exercise Capacity Index Clinical Classification Test Code",No,Instrument Test Code,HIGH,
C120986,BODE01TN,"The Body-Mass Index, Airflow Obstruction, Dyspnea, and Exercise Capacity Index Clinical Classification Test Name",No,Instrument Test Name,HIGH,
C127352,EPIC2TC,The Expanded Prostate Cancer Index Composite for Clinical Practice Questionnaire Test Code,No,Instrument Test Code,HIGH,
C127351,EPIC2TN,The Expanded Prostate Cancer Index Composite for Clinical Practice Questionnaire Test Name,No,Instrument Test Name,HIGH,
C127350,EPIC1TC,The Expanded Prostate Cancer Index Composite Short Form Questionnaire Test Code,No,Instrument Test Code,HIGH,
C127349,EPIC1TN,The Expanded Prostate Cancer Index Composite Short Form Questionnaire Test Name,No,Instrument Test Name,HIGH,
C127354,FAC001TC,The Functional Assessment of Cancer Therapy-General Version 4 Questionnaire Test Code,No,Instrument Test Code,HIGH,
C127353,FAC001TN,The Functional Assessment of Cancer Therapy-General Version 4 Questionnaire Test Name,No,Instrument Test Name,HIGH,
C127358,FAC023TC,The Functional Assessment of Cancer Therapy-Prostate Version 4 Questionnaire Test Code,No,Instrument Test Code,HIGH,
C127357,FAC023TN,The Functional Assessment of Cancer Therapy-Prostate Version 4 Questionnaire Test Name,No,Instrument Test Name,HIGH,
C163391,GMSS01TC,The Glucose Monitoring System Satisfaction Survey Version: Type 1 Diabetes Questionnaire Test Code,No,Instrument Test Code,HIGH,
C163390,GMSS01TN,The Glucose Monitoring System Satisfaction Survey Version: Type 1 Diabetes Questionnaire Test Name,No,Instrument Test Name,HIGH,
C127356,FAC052TC,The National Comprehensive Cancer Network/Functional Assessment of Cancer Therapy-Prostate Symptom Index 17 Version 2 Questionnaire Test Code,No,Instrument Test Code,HIGH,
C127355,FAC052TN,The National Comprehensive Cancer Network/Functional Assessment of Cancer Therapy-Prostate Symptom Index 17 Version 2 Questionnaire Test Name,No,Instrument Test Name,HIGH,
C103479,ODI01TC,The Oswestry Disability Index Version 2.1a Questionnaire Test Code,No,Instrument Test Code,HIGH,
C103478,ODI01TN,The Oswestry Disability Index Version 2.1a Questionnaire Test Name,No,Instrument Test Name,HIGH,
C103475,OABQ01TC,The Overactive Bladder Questionnaire Questionnaire Test Code,No,Instrument Test Code,HIGH,
C103474,OABQ01TN,The Overactive Bladder Questionnaire Questionnaire Test Name,No,Instrument Test Name,HIGH,
C103477,OABQ02TC,The Overactive Bladder Questionnaire Short Form Questionnaire Test Code,No,Instrument Test Code,HIGH,
C103476,OABQ02TN,The Overactive Bladder Questionnaire Short Form Questionnaire Test Name,No,Instrument Test Name,HIGH,
C127360,PROS01TC,The Prostate Cancer Specific Quality of Life Instrument Questionnaire Test Code,No,Instrument Test Code,HIGH,
C127359,PROS01TN,The Prostate Cancer Specific Quality of Life Instrument Questionnaire Test Name,No,Instrument Test Name,HIGH,
C135692,PCL01TC,The PTSD Checklist for DSM-5 Questionnaire Test Code,No,Instrument Test Code,HIGH,
C135691,PCL01TN,The PTSD Checklist for DSM-5 Questionnaire Test Name,No,Instrument Test Name,HIGH,
C101823,SF362TC,"The Short Form 36 Health Survey Acute, US Version 1.0 Questionnaire Test Code",No,Instrument Test Code,HIGH,
C101824,SF362TN,"The Short Form 36 Health Survey Acute, US Version 1.0 Questionnaire Test Name",No,Instrument Test Name,HIGH,
C101884,SF364TC,"The Short Form 36 Health Survey Acute, US Version 2.0 Questionnaire Test Code",No,Instrument Test Code,HIGH,
C101825,SF364TN,"The Short Form 36 Health Survey Acute, US Version 2.0 Questionnaire Test Name",No,Instrument Test Name,HIGH,
C100174,SF361TC,"The Short Form 36 Health Survey Standard, US Version 1.0 Questionnaire Test Code",No,Instrument Test Code,HIGH,
C100173,SF361TN,"The Short Form 36 Health Survey Standard, US Version 1.0 Questionnaire Test Name",No,Instrument Test Name,HIGH,
C101826,SF363TC,"The Short Form 36 Health Survey Standard, US Version 2.0 Questionnaire Test Code",No,Instrument Test Code,HIGH,
C101827,SF363TN,"The Short Form 36 Health Survey Standard, US Version 2.0 Questionnaire Test Name",No,Instrument Test Name,HIGH,
C166186,WPAI02TC,The Work Productivity and Activity Impairment - General Health Version 2.0 Questionnaire Test Code,No,Instrument Test Code,HIGH,
C166185,WPAI02TN,The Work Productivity and Activity Impairment - General Health Version 2.0 Questionnaire Test Name,No,Instrument Test Name,HIGH,
C115398,T25FW1TC,Timed 25-Foot Walk Test Functional Test Test Code,No,Instrument Test Code,HIGH,
C115397,T25FW1TN,Timed 25-Foot Walk Test Functional Test Test Name,No,Instrument Test Name,HIGH,
C115400,TUG01TC,Timed Up and Go Test Functional Test Test Code,No,Instrument Test Code,HIGH,
C115399,TUG01TN,Timed Up and Go Test Functional Test Test Name,No,Instrument Test Name,HIGH,
C101841,TIMIFLRS,TIMI Flow Responses,No,Clinical Classification,HIGH,
C204430,TIFATSCD,Tobacco Findings About Test Code,Yes,Instrument Test Code,HIGH,
C204431,TIFATS,Tobacco Findings About Test Name,Yes,Instrument Test Name,HIGH,
C204414,TPCATRS,Tobacco Product Category Response,Yes,Tobacco Product,HIGH,
C204425,PDPARMCD,Tobacco Product Design Parameters Code,Yes,Parameter Name-Code,HIGH,
C204426,PDPARM,Tobacco Product Design Parameters Name,Yes,Parameter Name-Code,HIGH,
C204418,SPECPT,Tobacco Product Testing Specimen Type,Yes,Specimen,HIGH,
C204427,PTTESTCD,Tobacco Product Testing Test Code,Yes,Instrument Test Code,HIGH,
C204428,PTTEST,Tobacco Product Testing Test Name,Yes,Instrument Test Name,HIGH,
C204432,TOPARMCD,Tobacco Products Parameter Code,Yes,Parameter Name-Code,HIGH,
C204433,TOPARM,Tobacco Products Parameter Name,Yes,Parameter Name-Code,HIGH,
C204419,TNCOMPLT,Tobacco Study Completion/Reason for Non-Completion,Yes,Disposition,HIGH,
C124688,TMT01TC,Trail Making Test Functional Test Test Code,No,Instrument Test Code,HIGH,
C124687,TMT01TN,Trail Making Test Functional Test Test Name,No,Instrument Test Name,HIGH,
C106657,TDI01TC,Transition Dyspnea Index Clinical Classification Test Code,No,Instrument Test Code,HIGH,
C106656,TDI01TN,Transition Dyspnea Index Clinical Classification Test Name,No,Instrument Test Name,HIGH,
C147548,TSCC01TC,Trauma Symptom Checklist for Children Questionnaire Test Code,No,Instrument Test Code,HIGH,
C147547,TSCC01TN,Trauma Symptom Checklist for Children Questionnaire Test Name,No,Instrument Test Name,HIGH,
C147550,TSCYC1TC,Trauma Symptom Checklist for Young Children Questionnaire Test Code,No,Instrument Test Code,HIGH,
C147549,TSCYC1TN,Trauma Symptom Checklist for Young Children Questionnaire Test Name,No,Instrument Test Name,HIGH,
C124307,TRTINTNT,Treatment Intent,Yes,Treatment Qualifier,HIGH,
C132525,TSQM01TC,Treatment Satisfaction Questionnaire for Medication Version 1.4 Questionnaire Test Code,No,Instrument Test Code,HIGH,
C132524,TSQM01TN,Treatment Satisfaction Questionnaire for Medication Version 1.4 Questionnaire Test Name,No,Instrument Test Name,HIGH,
C124308,TRTSET,Treatment Setting,Yes,Treatment Qualifier,HIGH,
C66735,TBLIND,Trial Blinding Schema Response,Yes,Trial Design,HIGH,
C66736,TINDTP,Trial Intent Type Response,Yes,Trial Design,HIGH,
C66737,TPHASE,Trial Phase Response,Yes,Trial Design,HIGH,
C66738,TSPARMCD,Trial Summary Parameter Test Code,Yes,Instrument Test Code,HIGH,
C67152,TSPARM,Trial Summary Parameter Test Name,Yes,Instrument Test Name,HIGH,
C66739,TTYPE,Trial Type Response,Yes,Trial Design,HIGH,
C127266,TBFATSCD,Tuberculosis Findings About Test Code,Yes,Instrument Test Code,HIGH,
C127267,TBFATS,Tuberculosis Findings About Test Name,Yes,Instrument Test Name,HIGH,
C96784,TUTESTCD,Tumor or Lesion Identification Test Code,Yes,Instrument Test Code,HIGH,
C96783,TUTEST,Tumor or Lesion Identification Test Name,Yes,Instrument Test Name,HIGH,
C123650,TUIDRS,Tumor or Lesion Identification Test Results,Yes,Oncology Assessment,HIGH,
C96779,TRTESTCD,Tumor or Lesion Properties Test Code,Yes,Instrument Test Code,HIGH,
C96778,TRTEST,Tumor or Lesion Properties Test Name,Yes,Instrument Test Name,HIGH,
C124309,TRPROPRS,Tumor or Lesion Properties Test Result,Yes,Oncology Assessment,HIGH,
C163027,D1FATSCD,Type 1 Diabetes Findings About Test Code,Yes,Instrument Test Code,HIGH,
C163028,D1FATS,Type 1 Diabetes Findings About Test Name,Yes,Instrument Test Name,HIGH,
C154449,UHDR1TC,Unified Huntington's Disease Rating Scale '99 Clinical Classification Test Code,No,Instrument Test Code,HIGH,
C154448,UHDR1TN,Unified Huntington's Disease Rating Scale '99 Clinical Classification Test Name,No,Instrument Test Name,HIGH,
C100148,UPD1TC,Unified Parkinson's Disease Rating Scale Clinical Classification Test Code,No,Instrument Test Code,HIGH,
C100147,UPD1TN,Unified Parkinson's Disease Rating Scale Clinical Classification Test Name,No,Instrument Test Name,HIGH,
C71620,UNIT,Unit,Yes,Unit of Measure,HIGH,
C66770,VSRESU,Units for Vital Signs Results,Yes,Unit of Measure,HIGH,
C103489,UPS01TC,Urgency Perception Scale Questionnaire Test Code,No,Instrument Test Code,HIGH,
C103488,UPS01TN,Urgency Perception Scale Questionnaire Test Name,No,Instrument Test Name,HIGH,
C129942,URNSTSCD,Urinary System Test Code,Yes,Instrument Test Code,HIGH,
C129941,URNSTS,Urinary System Test Name,Yes,Instrument Test Name,HIGH,
C102590,VCNEVD,Vaccination Evidence Source,Yes,Observation Qualifier,HIGH,
C142187,VNFATSCD,Vaccines Findings About Test Code,Yes,Instrument Test Code,HIGH,
C142189,VNFATS,Vaccines Findings About Test Name,Yes,Instrument Test Name,HIGH,
C141653,VALG01TC,Veterans Administration Lung Study Group Clinical Classification Test Code,No,Instrument Test Code,HIGH,
C141652,VALG01TN,Veterans Administration Lung Study Group Clinical Classification Test Name,No,Instrument Test Name,HIGH,
C130241,VLERS1TC,Vignos Lower Extremity Rating Scale Clinical Classification Test Code,No,Instrument Test Code,HIGH,
C130240,VLERS1TN,Vignos Lower Extremity Rating Scale Clinical Classification Test Name,No,Instrument Test Name,HIGH,
C66741,VSTESTCD,Vital Signs Test Code,Yes,Instrument Test Code,HIGH,
C67153,VSTEST,Vital Signs Test Name,Yes,Instrument Test Name,HIGH,
C190942,VHI01TC,Voice Handicap Index Questionnaire Test Code,No,Instrument Test Code,HIGH,
C190941,VHI01TN,Voice Handicap Index Questionnaire Test Name,No,Instrument Test Name,HIGH,
C117746,HEPENCGR,West Haven Hepatic Encephalopathy Grade,No,Clinical Classification,HIGH,
C124680,WHEG01TC,West Haven Hepatic Encephalopathy Grade Clinical Classification Test Code,No,Instrument Test Code,HIGH,
C124679,WHEG01TN,West Haven Hepatic Encephalopathy Grade Clinical Classification Test Name,No,Instrument Test Name,HIGH,
C124674,WHIVS1TC,WHO Clinical Staging of HIV/AIDS for Adults and Adolescents Clinical Classification Test Code,No,Instrument Test Code,HIGH,
C124673,WHIVS1TN,WHO Clinical Staging of HIV/AIDS for Adults and Adolescents Clinical Classification Test Name,No,Instrument Test Name,HIGH,
C124676,WHIVS2TC,WHO Clinical Staging of HIV/AIDS for Children Clinical Classification Test Code,No,Instrument Test Code,HIGH,
C124675,WHIVS2TN,WHO Clinical Staging of HIV/AIDS for Children Clinical Classification Test Name,No,Instrument Test Name,HIGH,
C100176,WPAI01TC,Work Productivity and Activity Impairment Questionnaire - Specific Health Problem V2.0 Questionnaire Test Code,No,Instrument Test Code,HIGH,
C100175,WPAI01TN,Work Productivity and Activity Impairment Questionnaire - Specific Health Problem V2.0 Questionnaire Test Name,No,Instrument Test Name,HIGH,
C130281,WD4TC,World Health Organization Disability Assessment Schedule 2.0 - 12 + 24-Item Interviewer Questionnaire Test Code,No,Instrument Test Code,HIGH,
C130280,WD4TN,World Health Organization Disability Assessment Schedule 2.0 - 12 + 24-Item Interviewer Questionnaire Test Name,No,Instrument Test Name,HIGH,
C130275,WD1TC,World Health Organization Disability Assessment Schedule 2.0 - 12-Item Interviewer Questionnaire Test Code,No,Instrument Test Code,HIGH,
C130274,WD1TN,World Health Organization Disability Assessment Schedule 2.0 - 12-Item Interviewer Questionnaire Test Name,No,Instrument Test Name,HIGH,
C130277,WD2TC,World Health Organization Disability Assessment Schedule 2.0 - 12-Item Proxy Questionnaire Test Code,No,Instrument Test Code,HIGH,
C130276,WD2TN,World Health Organization Disability Assessment Schedule 2.0 - 12-Item Proxy Questionnaire Test Name,No,Instrument Test Name,HIGH,
C130279,WD3TC,World Health Organization Disability Assessment Schedule 2.0 - 12-Item Self Questionnaire Test Code,No,Instrument Test Code,HIGH,
C130278,WD3TN,World Health Organization Disability Assessment Schedule 2.0 - 12-Item Self Questionnaire Test Name,No,Instrument Test Name,HIGH,
C130269,WD5TC,World Health Organization Disability Assessment Schedule 2.0 - 36-Item Interviewer Questionnaire Test Code,No,Instrument Test Code,HIGH,
C130268,WD5TN,World Health Organization Disability Assessment Schedule 2.0 - 36-Item Interviewer Questionnaire Test Name,No,Instrument Test Name,HIGH,
C130271,WD6TC,World Health Organization Disability Assessment Schedule 2.0 - 36-Item Proxy Questionnaire Test Code,No,Instrument Test Code,HIGH,
C130270,WD6TN,World Health Organization Disability Assessment Schedule 2.0 - 36-Item Proxy Questionnaire Test Name,No,Instrument Test Name,HIGH,
C130273,WD7TC,World Health Organization Disability Assessment Schedule 2.0 - 36-Item Self Questionnaire Test Code,No,Instrument Test Code,HIGH,
C130272,WD7TN,World Health Organization Disability Assessment Schedule 2.0 - 36-Item Self Questionnaire Test Name,No,Instrument Test Name,HIGH,
